time,seconds_elapsed,z,y,x
1680891125554260700,0.0312607421875,0,0,0
1680891125564299000,0.041299072265625,-0.41635990142822266,0.41872310638427734,-0.37251830101013184
1680891125574337500,0.051337646484375,-0.5705819129943848,0.5550878047943115,-0.30930042266845703
1680891125584375800,0.061375732421875,-0.376192569732666,0.22192859649658203,0.28982114791870117
1680891125594414300,0.071414306640625,-0.06635665893554688,-0.2979849576950073,0.6268682479858398
1680891125604452600,0.08145263671875,0.21561908721923828,-0.9325678944587708,1.3098537921905518
1680891125614491100,0.0914912109375,0.6473979949951172,-0.9995673298835754,1.7692623138427734
1680891125624529400,0.101529296875,0.9596157073974609,-0.7760762572288513,1.953155517578125
1680891125634568000,0.11156787109375,1.521531581878662,-0.4686017632484436,1.5674371719360352
1680891125644606200,0.121606201171875,1.3589768409729004,-0.2700708508491516,0.47539782524108887
1680891125654644700,0.131644775390625,1.8260979652404785,0.5475056171417236,-0.46338987350463867
1680891125664683000,0.14168310546875,2.019517421722412,0.9993797540664673,-0.5023407936096191
1680891125674721500,0.151721435546875,1.3540358543395996,-0.2067093849182129,-0.37456393241882324
1680891125684759800,0.161759765625,-0.2886686325073242,-0.7011618614196777,-0.11446070671081543
1680891125694798300,0.17179833984375,0.5967235565185547,-0.570638120174408,-0.43819403648376465
1680891125704836600,0.181836669921875,0.5937352180480957,-0.7398718595504761,-0.41505908966064453
1680891125714875100,0.191875244140625,1.5346784591674805,-0.8961430788040161,-0.9443011283874512
1680891125724913400,0.201913330078125,2.2926125526428223,-1.2658886909484863,-0.8434224128723145
1680891125734952000,0.211951904296875,2.596607208251953,-1.2933881282806396,-0.2995188236236572
1680891125744990200,0.221990234375,2.1833834648132324,-0.9822577238082886,0.11046576499938965
1680891125755028700,0.23202880859375,1.1554250717163086,-0.45845451951026917,0.32753467559814453
1680891125765067000,0.24206689453125,-0.4733858108520508,-0.011086910963058472,0.5785670280456543
1680891125775105500,0.25210546875,-1.5673847198486328,0.4034111201763153,0.10792660713195801
1680891125785143800,0.262143798828125,-1.8096399307250977,0.16593053936958313,-0.3829512596130371
1680891125795182300,0.272182373046875,-1.3293228149414062,-0.2963680028915405,-0.8237085342407227
1680891125805220600,0.282220703125,-0.4048333168029785,-0.7901875972747803,-1.1053287982940674
1680891125815259100,0.292259033203125,0.49091291427612305,-1.1993484497070312,-1.0016639232635498
1680891125825297400,0.30229736328125,1.5661358833312988,-1.8870975971221924,-1.3096280097961426
1680891125835336000,0.3123359375,2.068892002105713,-2.594217300415039,-1.986210584640503
1680891125845374200,0.322374267578125,1.6175551414489746,-2.613556385040283,-2.176837921142578
1680891125855412700,0.332412841796875,-0.09813737869262695,-3.0949440002441406,-2.1396496295928955
1680891125865451000,0.342450927734375,-1.7805519104003906,-3.5187907218933105,-2.0496506690979004
1680891125875489500,0.352489501953125,-2.0181217193603516,-1.913293480873108,-3.079622983932495
1680891125885528000,0.362528076171875,-2.877455234527588,-2.902087450027466,-3.1355769634246826
1680891125895566300,0.37256640625,-3.1542561054229736,-4.0389299392700195,-2.8659799098968506
1680891125905604600,0.3826044921875,-2.738769769668579,-4.036795616149902,-2.2674384117126465
1680891125915643100,0.39264306640625,-1.9889371395111084,-4.056029319763184,-2.066678285598755
1680891125925681400,0.402681396484375,-0.7328617572784424,-4.036837577819824,-0.8411202430725098
1680891125935720000,0.412719970703125,0.5117666721343994,-3.8169569969177246,1.215674877166748
1680891125945758500,0.422758544921875,1.4610064029693604,-3.968543767929077,3.014627456665039
1680891125955796700,0.432796630859375,2.3580007553100586,-4.164498329162598,4.5003743171691895
1680891125965835000,0.4428349609375,3.207080841064453,-4.435022354125977,5.54517126083374
1680891125975873500,0.45287353515625,4.188294887542725,-4.449991703033447,5.653945446014404
1680891125985912000,0.462912109375,5.016075134277344,-4.360006332397461,5.64749002456665
1680891125995950300,0.472950439453125,5.176512718200684,-4.703102111816406,5.926360607147217
1680891126005988600,0.482988525390625,5.357243061065674,-4.375162124633789,7.111670970916748
1680891126016027100,0.493027099609375,5.756539821624756,-3.705824375152588,8.75123405456543
1680891126026065700,0.503065673828125,5.053737640380859,-3.230830669403076,9.834665298461914
1680891126036104000,0.51310400390625,3.551281690597534,-2.4827446937561035,11.050315856933594
1680891126046142500,0.523142578125,1.4749199151992798,-1.3803014755249023,11.594558715820312
1680891126056180700,0.5331806640625,-1.0952774286270142,-0.2723512649536133,11.941728591918945
1680891126066219300,0.54321923828125,-3.2373862266540527,1.0572662353515625,12.248250961303711
1680891126076257500,0.553257568359375,-4.525257110595703,1.8734126091003418,12.18437385559082
1680891126086296000,0.563296142578125,-4.486369609832764,2.7836451530456543,12.283516883850098
1680891126096334300,0.573334228515625,-3.2012016773223877,3.903111457824707,12.166160583496094
1680891126106372900,0.583372802734375,-2.107320785522461,4.792159080505371,11.94436264038086
1680891126116411100,0.5934111328125,-3.024413824081421,5.543261528015137,11.107221603393555
1680891126126449700,0.60344970703125,-3.8981564044952393,6.087854385375977,9.825349807739258
1680891126136488000,0.613488037109375,-3.8305935859680176,7.026936054229736,7.071198463439941
1680891126146526500,0.6235263671875,-7.774996757507324,8.701123237609863,3.683476448059082
1680891126156564700,0.633564697265625,-12.016738891601562,8.986334800720215,1.4039793014526367
1680891126166603300,0.643603271484375,-10.704547882080078,8.894256591796875,-0.9306201934814453
1680891126176641500,0.6536416015625,-7.201944351196289,8.30285930633545,-2.6178197860717773
1680891126186680000,0.66368017578125,-5.400500297546387,6.926993370056152,-3.2800331115722656
1680891126196718300,0.67371826171875,-5.426587104797363,6.286047458648682,-5.023364543914795
1680891126206756900,0.6837568359375,-7.029721260070801,5.123856067657471,-7.145195484161377
1680891126216795100,0.693795166015625,-5.775328636169434,5.244245529174805,-5.733741760253906
1680891126226833700,0.703833740234375,-4.397244453430176,3.9084360599517822,-5.0812225341796875
1680891126236872000,0.713871826171875,-1.0306545495986938,2.992145538330078,-5.136560916900635
1680891126246910500,0.723910400390625,3.5758016109466553,0.14743447303771973,-5.6841888427734375
1680891126256948700,0.73394873046875,4.85412073135376,-1.9745609760284424,-5.95419454574585
1680891126266987300,0.7439873046875,4.686290740966797,-2.190958261489868,-5.943703651428223
1680891126277025500,0.754025634765625,1.2616989612579346,-3.068577766418457,-4.159682273864746
1680891126287064000,0.76406396484375,-0.4379427433013916,-1.850898027420044,-2.463423728942871
1680891126297102300,0.774102294921875,-0.009394645690917969,-1.7554371356964111,-0.795832633972168
1680891126307140900,0.784140869140625,0.5622819662094116,-1.072774887084961,-0.4291524887084961
1680891126317179100,0.79417919921875,1.5849997997283936,-1.4812853336334229,1.023855209350586
1680891126327217700,0.8042177734375,2.4771647453308105,-1.0592575073242188,0.9871912002563477
1680891126337256000,0.814255859375,2.252443552017212,-2.4281320571899414,1.3638381958007812
1680891126347294500,0.82429443359375,1.1182425022125244,-3.325465202331543,1.3513259887695312
1680891126357332700,0.834332763671875,-0.1398301124572754,-5.6699323654174805,4.574660301208496
1680891126367371300,0.844371337890625,-0.885141134262085,-7.542553424835205,4.9138593673706055
1680891126377409500,0.854409423828125,1.2668300867080688,-3.1293423175811768,3.66668701171875
1680891126387448000,0.864447998046875,1.695575475692749,-2.130669593811035,2.4041213989257812
1680891126397486300,0.874486328125,1.792506217956543,-4.821107864379883,3.190854072570801
1680891126407524900,0.88452490234375,1.7106906175613403,-6.717291831970215,1.909708023071289
1680891126417563100,0.894563232421875,1.6496906280517578,-7.226871490478516,0.5479650497436523
1680891126427601700,0.9046015625,1.3800771236419678,-6.974440574645996,1.1041059494018555
1680891126437640200,0.91464013671875,1.0657007694244385,-7.197674751281738,1.687103271484375
1680891126447678500,0.924678466796875,0.14657115936279297,-7.640583515167236,2.004535675048828
1680891126457716700,0.934716796875,-1.6882115602493286,-6.929431915283203,-1.7928004264831543
1680891126467755300,0.94475537109375,-3.493961811065674,-6.663306713104248,-2.5907602310180664
1680891126477793800,0.954793701171875,-0.12899988889694214,-5.490030288696289,-3.652688503265381
1680891126487832000,0.96483203125,-0.5310502052307129,-3.9410948753356934,-2.161722183227539
1680891126497870600,0.97487060546875,0.6051735877990723,-2.9367051124572754,-1.1522674560546875
1680891126507908900,0.984908935546875,2.505446434020996,-1.4482593536376953,-1.203749656677246
1680891126517947100,0.994947021484375,3.4890663623809814,-0.3061809539794922,1.2666215896606445
1680891126527985700,1.004985595703125,2.8864142894744873,2.207980155944824,2.5205583572387695
1680891126538024200,1.015024169921875,6.0156965255737305,3.5822877883911133,5.436861038208008
1680891126548062500,1.0250625,3.060580253601074,7.382548809051514,5.423913955688477
1680891126558101000,1.03510107421875,-2.652146339416504,10.119416236877441,5.0348405838012695
1680891126568139300,1.04513916015625,-4.057184219360352,12.33415412902832,5.060637474060059
1680891126578177800,1.055177734375,-8.804513931274414,13.5079927444458,3.0325326919555664
1680891126588216000,1.065216064453125,-11.156048774719238,11.967164993286133,-1.8805594444274902
1680891126598254600,1.075254638671875,-7.304102420806885,7.05179500579834,-3.7754578590393066
1680891126608292900,1.08529296875,-4.974974155426025,2.643087863922119,-2.586202621459961
1680891126618331400,1.095331298828125,-2.3075339794158936,3.0680296421051025,-1.6573271751403809
1680891126628369700,1.10536962890625,-4.200197696685791,5.8739118576049805,-2.023284435272217
1680891126638408200,1.115408203125,-5.213698387145996,6.173876762390137,-4.02427864074707
1680891126648446500,1.125446533203125,-1.3692904710769653,7.905041694641113,0.5705785751342773
1680891126658485000,1.135485107421875,3.3883676528930664,16.97640037536621,0.7575693130493164
1680891126668523300,1.145523193359375,5.727866172790527,12.265083312988281,-2.3016862869262695
1680891126678561800,1.155561767578125,5.180814266204834,-3.1326465606689453,-0.1569843292236328
1680891126688600000,1.16560009765625,3.833552360534668,-0.42493748664855957,-3.175416946411133
1680891126698638600,1.175638671875,3.128615140914917,-4.684706211090088,-1.4397430419921875
1680891126708676900,1.1856767578125,-3.917637348175049,-6.472332000732422,-4.209001064300537
1680891126718715400,1.19571533203125,-5.0321946144104,-9.391779899597168,-6.996902942657471
1680891126728753700,1.205753662109375,-1.1846400499343872,-8.383283615112305,-8.594779968261719
1680891126738792200,1.215792236328125,-0.2841024398803711,-8.212060928344727,-8.073938369750977
1680891126748830700,1.225830810546875,-2.29418683052063,-7.806216239929199,-8.843477249145508
1680891126758869000,1.235868896484375,-3.924985885620117,-7.695276260375977,-7.56440544128418
1680891126768907500,1.245907470703125,-2.7003142833709717,-8.935209274291992,-4.420007705688477
1680891126778945800,1.25594580078125,-3.8283610343933105,-9.564986228942871,0.06110095977783203
1680891126788984000,1.265984130859375,-2.960430145263672,-11.13641357421875,9.486714363098145
1680891126799022600,1.276022705078125,5.82098388671875,-6.748953342437744,12.959587097167969
1680891126809061000,1.28606103515625,3.8379147052764893,-6.702165603637695,14.574573516845703
1680891126819099400,1.296099365234375,1.5668261051177979,-5.66466760635376,9.323480606079102
1680891126829138000,1.306137939453125,0.7820031642913818,-4.038644313812256,1.368335247039795
1680891126839176200,1.31617626953125,-2.805799961090088,-5.655220031738281,-2.9521989822387695
1680891126849214700,1.326214599609375,-3.4001893997192383,-5.489724159240723,-5.826327800750732
1680891126859253000,1.3362529296875,-1.0296521186828613,-3.5414767265319824,-1.916612148284912
1680891126869291500,1.34629150390625,0.6308860778808594,-2.0990052223205566,-0.3203163146972656
1680891126879329800,1.356329833984375,0.5191726684570312,-2.1158628463745117,0.512941837310791
1680891126889368300,1.366368408203125,-1.0571584701538086,-1.498145580291748,-0.5324234962463379
1680891126899406600,1.376406494140625,-2.117091655731201,-0.18969058990478516,-0.2829742431640625
1680891126909445000,1.386445068359375,-1.3427791595458984,0.4291243553161621,3.148151397705078
1680891126919483400,1.3964833984375,4.5471415519714355,2.9102234840393066,5.662482738494873
1680891126929522000,1.40652197265625,4.3389668464660645,0.4808206558227539,9.956705093383789
1680891126939560200,1.416560302734375,3.277017831802368,-1.169792652130127,10.7078857421875
1680891126949598700,1.4265986328125,2.5234339237213135,-0.689384937286377,9.985475540161133
1680891126959637000,1.436636962890625,3.2147746086120605,1.7908239364624023,8.720380783081055
1680891126969675500,1.446675537109375,2.338897705078125,3.7210378646850586,9.371613502502441
1680891126979714000,1.456714111328125,2.104631185531616,2.089885950088501,4.573415279388428
1680891126989752300,1.46675244140625,3.0769495964050293,-0.9611592292785645,-2.0048446655273438
1680891126999790800,1.476790771484375,2.28253173828125,-2.6688709259033203,-5.187231540679932
1680891127009829000,1.4868291015625,1.0934622287750244,-1.7489895820617676,-4.772589683532715
1680891127019867600,1.49686767578125,0.9685449600219727,0.5176615715026855,-1.8198866844177246
1680891127029906000,1.506906005859375,2.338860511779785,2.7072179317474365,0.3699355125427246
1680891127039944400,1.5169443359375,3.407118797302246,2.670283794403076,-0.18911123275756836
1680891127049982700,1.526982666015625,4.6389031410217285,1.2651774883270264,-2.822815418243408
1680891127060021200,1.537021240234375,5.657538890838623,-0.32170772552490234,-7.044341564178467
1680891127070059500,1.5470595703125,5.641599178314209,-1.752385139465332,-10.507246017456055
1680891127080098000,1.55709814453125,4.046550750732422,-3.4930872917175293,-12.473288536071777
1680891127090136300,1.56713623046875,2.1162478923797607,-4.308062553405762,-13.150693893432617
1680891127100174800,1.5771748046875,0.6724386215209961,-3.8374977111816406,-11.280722618103027
1680891127110213000,1.587213134765625,-0.5243911743164062,-2.3720364570617676,-8.939779281616211
1680891127120251600,1.597251708984375,1.5117807388305664,-0.15336847305297852,-8.152125358581543
1680891127130290000,1.6072900390625,3.366957187652588,3.7123794555664062,-7.307834625244141
1680891127140328400,1.617328369140625,3.150313377380371,6.133293151855469,-5.145872116088867
1680891127150366700,1.62736669921875,-1.949965476989746,1.3093852996826172,-3.6393399238586426
1680891127160405200,1.6374052734375,-7.199525356292725,-8.39150619506836,6.609172821044922
1680891127170443800,1.64744384765625,-6.422369956970215,-9.380818367004395,12.199882507324219
1680891127180482000,1.65748193359375,-3.9172048568725586,-5.721324920654297,11.278114318847656
1680891127190520600,1.6675205078125,-3.6986451148986816,-4.699978828430176,8.063321113586426
1680891127200558800,1.677558837890625,-3.3634703159332275,-4.483520984649658,4.641074180603027
1680891127210597400,1.687597412109375,-2.336793899536133,-3.6008520126342773,2.679426670074463
1680891127220635600,1.6976357421875,-2.5008416175842285,-4.067767143249512,1.242950439453125
1680891127230674200,1.707674072265625,-2.840116500854492,0.012196540832519531,-3.105365753173828
1680891127240712400,1.71771240234375,-2.5072598457336426,1.3936066627502441,-3.086559295654297
1680891127250751000,1.7277509765625,-1.1002922058105469,1.1822905540466309,-2.690549850463867
1680891127260789200,1.737789306640625,-0.14302825927734375,1.6772112846374512,-1.5462231636047363
1680891127270827800,1.747827880859375,0.6316914558410645,2.075039863586426,-0.0383448600769043
1680891127280866000,1.757865966796875,1.1549241542816162,2.3896803855895996,1.0328526496887207
1680891127290904600,1.767904541015625,1.2546846866607666,1.9867539405822754,1.5834407806396484
1680891127300942800,1.77794287109375,1.1270551681518555,1.143995761871338,1.9141640663146973
1680891127310981400,1.7879814453125,0.6040596961975098,0.43688249588012695,1.637455940246582
1680891127321019600,1.79801953125,0.18695497512817383,0.051679134368896484,1.2359614372253418
1680891127331058200,1.80805810546875,0.27526378631591797,0.3506927490234375,0.8197736740112305
1680891127341096700,1.8180966796875,0.6577672958374023,0.9532537460327148,0.3321871757507324
1680891127351135000,1.828135009765625,1.2502849102020264,1.6837873458862305,-0.17076873779296875
1680891127361173500,1.838173583984375,2.0600342750549316,2.1622323989868164,-0.32401418685913086
1680891127371211800,1.848211669921875,2.541910409927368,2.3975424766540527,0.22133302688598633
1680891127381250300,1.858250244140625,2.4584240913391113,2.6632542610168457,1.0990228652954102
1680891127391288600,1.86828857421875,2.400758743286133,2.7719931602478027,1.7808952331542969
1680891127401327000,1.8783271484375,1.9823412895202637,2.8951315879821777,3.0052456855773926
1680891127411365400,1.888365478515625,1.4976303577423096,2.48398494720459,3.6253654956817627
1680891127421404000,1.89840380859375,1.4331538677215576,2.5507726669311523,3.579420566558838
1680891127431442200,1.908442138671875,1.636704921722412,2.82920503616333,3.2129573822021484
1680891127441480700,1.918480712890625,1.8627923727035522,2.498483180999756,2.4320640563964844
1680891127451519000,1.92851904296875,2.259676456451416,1.9279932975769043,1.3343408107757568
1680891127461557500,1.9385576171875,2.7434277534484863,1.3765158653259277,-0.6453508138656616
1680891127471596000,1.948595947265625,2.8262181282043457,2.164289951324463,-2.0999724864959717
1680891127481634300,1.95863427734375,2.4574337005615234,2.5485711097717285,-2.5491678714752197
1680891127491672800,1.9686728515625,-1.554276943206787,1.8166604042053223,-2.2495758533477783
1680891127501711000,1.978711181640625,-11.113409042358398,0.7830066680908203,-9.419150352478027
1680891127511749600,1.98874951171875,-2.500419855117798,1.7096014022827148,-5.914999485015869
1680891127521788000,1.998787841796875,1.0776845216751099,3.5951032638549805,-3.6377484798431396
1680891127531826400,2.008826416015625,0.12012076377868652,2.783357620239258,-4.186225891113281
1680891127541864700,2.01886474609375,2.4534192085266113,1.788325309753418,-3.9271240234375
1680891127551903200,2.0289033203125,3.471038579940796,1.2399349212646484,-1.8711068630218506
1680891127561941500,2.03894140625,3.279273748397827,2.4905872344970703,0.19347824156284332
1680891127571980000,2.04897998046875,3.44589900970459,2.5535011291503906,1.7022398710250854
1680891127582018300,2.059018310546875,3.7856082916259766,1.5844449996948242,2.9424045085906982
1680891127592056800,2.069056884765625,3.6269266605377197,-0.7321224212646484,4.38720703125
1680891127602095000,2.07909521484375,4.0606184005737305,-4.0036725997924805,4.076170921325684
1680891127612133600,2.089133544921875,4.033926010131836,-6.2040910720825195,2.451597213745117
1680891127622172200,2.099172119140625,3.218930959701538,-8.407894134521484,0.5564262866973877
1680891127632210400,2.10921044921875,3.98146390914917,-10.08935832977295,-2.0627708435058594
1680891127642249000,2.1192490234375,4.734345436096191,-10.392997741699219,-4.745105743408203
1680891127652287200,2.129287353515625,4.594212055206299,-8.10433292388916,-6.882233142852783
1680891127662325800,2.13932568359375,3.669070243835449,-5.11672306060791,-6.967773914337158
1680891127672364000,2.149364013671875,2.3198938369750977,-3.5695571899414062,-4.9328203201293945
1680891127682402600,2.159402587890625,1.0792913436889648,-2.2398834228515625,-3.431191921234131
1680891127692441000,2.169441162109375,-0.11691498756408691,-1.0377788543701172,-3.6846861839294434
1680891127702479400,2.179479248046875,-14.079072952270508,0.3340129852294922,-7.4641432762146
1680891127712518000,2.189517822265625,-9.879547119140625,2.292573928833008,-7.919521808624268
1680891127722556200,2.19955615234375,-1.919552206993103,2.316699504852295,-6.238885402679443
1680891127732594700,2.2095947265625,1.9008897542953491,2.099472999572754,-4.965007305145264
1680891127742633000,2.219633056640625,3.4630630016326904,2.1542282104492188,-3.8994803428649902
1680891127752671500,2.22967138671875,3.5305185317993164,1.89068603515625,-2.3684096336364746
1680891127762709800,2.239709716796875,1.2362408638000488,1.9417781829833984,0.24497652053833008
1680891127772748300,2.249748291015625,-0.39965349435806274,2.0312209129333496,2.3282458782196045
1680891127782786600,2.25978662109375,-0.4560922384262085,2.1078271865844727,3.2890450954437256
1680891127792825000,2.2698251953125,-0.46771037578582764,2.214737892150879,3.8224010467529297
1680891127802863400,2.27986328125,-0.40969717502593994,1.9785537719726562,3.5823898315429688
1680891127812902000,2.28990185546875,-0.31903061270713806,1.7038531303405762,2.9400882720947266
1680891127822940200,2.299940185546875,-0.21934139728546143,1.4452619552612305,1.8235397338867188
1680891127832978700,2.309978759765625,-0.06427182257175446,1.2191290855407715,0.07831239700317383
1680891127843017200,2.320017333984375,0.18720264732837677,0.746150016784668,-1.351820945739746
1680891127853055500,2.330055419921875,0.15921050310134888,0.17020130157470703,-2.2857608795166016
1680891127863094000,2.340093994140625,-0.14625714719295502,-0.2174367904663086,-2.8729376792907715
1680891127873132300,2.35013232421875,-0.46927744150161743,-0.7039203643798828,-3.174701452255249
1680891127883170800,2.3601708984375,-0.3483402132987976,-1.2932262420654297,-2.5371289253234863
1680891127893209000,2.370208984375,0.13654226064682007,-1.42950439453125,-1.677175760269165
1680891127903247600,2.38024755859375,0.48211246728897095,-1.4064254760742188,-0.7367544174194336
1680891127913286000,2.390285888671875,0.6834318041801453,-1.262415885925293,0.001239776611328125
1680891127923324400,2.400324462890625,0.6253460645675659,-1.1115131378173828,0.604442834854126
1680891127933363000,2.410363037109375,0.28683415055274963,-0.8364219665527344,1.2517118453979492
1680891127943401200,2.420401123046875,-0.14528849720954895,-0.6516599655151367,1.8732059001922607
1680891127953439700,2.430439697265625,-0.43532344698905945,-0.5277881622314453,2.3040268421173096
1680891127963478000,2.44047802734375,-0.48184922337532043,-0.5296144485473633,2.3608593940734863
1680891127973516500,2.4505166015625,-0.35572636127471924,-0.512150764465332,2.3074703216552734
1680891127983554800,2.460554931640625,-0.12486927211284637,-0.49114227294921875,2.092642307281494
1680891127993593300,2.47059326171875,0.08149678260087967,-0.3700742721557617,1.734145164489746
1680891128003631600,2.480631591796875,0.23839882016181946,-0.22487354278564453,1.5549333095550537
1680891128013670100,2.490670166015625,0.3634933829307556,-0.034722328186035156,1.34727144241333
1680891128023708700,2.500708740234375,0.3720201253890991,0.15967750549316406,1.0086662769317627
1680891128033747000,2.510746826171875,0.2891543507575989,0.20014381408691406,0.7083804607391357
1680891128043785500,2.520785400390625,0.14897921681404114,0.18454933166503906,0.5165736675262451
1680891128053823700,2.53082373046875,0.024505585432052612,0.1248321533203125,0.3449723720550537
1680891128063862300,2.5408623046875,-0.04126369208097458,0.11183834075927734,0.15266084671020508
1680891128073900500,2.550900634765625,-0.21389931440353394,0.17418766021728516,0.015287637710571289
1680891128083939000,2.56093896484375,-0.4607473611831665,0.2781248092651367,-0.14884161949157715
1680891128093977300,2.570977294921875,-0.675312340259552,0.4423856735229492,-0.3020138740539551
1680891128104016000,2.581015869140625,-0.8550840616226196,0.6640510559082031,-0.3352665901184082
1680891128114054400,2.591054443359375,-0.8566776514053345,0.9353036880493164,-0.3356337547302246
1680891128124092700,2.6010927734375,-0.7107476592063904,1.3127450942993164,-0.2969174385070801
1680891128134131200,2.611131103515625,-0.5031154751777649,1.7642173767089844,-0.1360020637512207
1680891128144169500,2.62116943359375,-0.37378084659576416,2.043644428253174,0.10030078887939453
1680891128154208000,2.6312080078125,-0.1606302261352539,2.414245128631592,0.503669261932373
1680891128164246300,2.641246337890625,0.4726523160934448,2.8200225830078125,1.200409173965454
1680891128174284800,2.651284912109375,1.1140825748443604,3.268268585205078,1.8404700756072998
1680891128184323000,2.661322998046875,1.277726411819458,3.6322078704833984,2.4165525436401367
1680891128194361600,2.671361572265625,1.6370270252227783,3.944489002227783,2.783696174621582
1680891128204400000,2.681400146484375,2.0423648357391357,4.020516872406006,3.1902570724487305
1680891128214438400,2.6914384765625,1.8382765054702759,4.230128765106201,3.843858003616333
1680891128224477000,2.701476806640625,0.20543932914733887,4.122441291809082,4.175470352172852
1680891128234515200,2.71151513671875,-1.2017312049865723,3.6925134658813477,3.422745943069458
1680891128244553700,2.7215537109375,-1.6130480766296387,3.31374454498291,2.347134828567505
1680891128254592000,2.731592041015625,-3.8930821418762207,2.4714088439941406,2.0309572219848633
1680891128264630500,2.741630615234375,-4.281253814697266,1.6020288467407227,1.9746750593185425
1680891128274669000,2.7516689453125,-1.8922820091247559,1.9907875061035156,2.0201210975646973
1680891128284707300,2.761707275390625,1.3116991519927979,2.761624336242676,2.438861131668091
1680891128294745900,2.771745849609375,3.3516993522644043,3.7876219749450684,2.248748302459717
1680891128304784100,2.7817841796875,3.7881603240966797,4.198540687561035,1.3600083589553833
1680891128314822700,2.79182275390625,3.3974013328552246,4.355637550354004,-0.19847917556762695
1680891128324861000,2.80186083984375,1.3928520679473877,2.79917049407959,-2.468508243560791
1680891128334899500,2.8118994140625,-5.386512756347656,-1.3080682754516602,-5.268918037414551
1680891128344937700,2.821937744140625,-8.476095199584961,-5.896969795227051,-8.356483459472656
1680891128354976300,2.831976318359375,-1.1950774192810059,-7.709758758544922,-8.721331596374512
1680891128365014800,2.842014892578125,3.9994335174560547,-8.320566177368164,-7.3096537590026855
1680891128375053000,2.852052978515625,3.4780261516571045,-10.480960845947266,-6.470661640167236
1680891128385091600,2.862091552734375,-1.6335573196411133,-15.672307968139648,-6.528937339782715
1680891128395129900,2.8721298828125,-3.5162148475646973,-20.54889678955078,-7.383205413818359
1680891128405168400,2.88216845703125,-1.2322309017181396,-22.82113265991211,-8.598745346069336
1680891128415206700,2.89220654296875,-1.518578052520752,-23.083343505859375,-9.08608627319336
1680891128425245200,2.9022451171875,-4.477682113647461,-22.84178924560547,-8.691904067993164
1680891128435283700,2.91228369140625,-5.158339500427246,-21.307987213134766,-8.074258804321289
1680891128445322000,2.922322021484375,-3.2597618103027344,-18.274593353271484,-7.190090179443359
1680891128455360500,2.932360595703125,-2.1028690338134766,-15.332488059997559,-6.010408401489258
1680891128465398800,2.942398681640625,-1.7228996753692627,-12.694799423217773,-4.928702354431152
1680891128475437300,2.952437255859375,-1.5015912055969238,-10.431317329406738,-3.909327507019043
1680891128485475600,2.9624755859375,-1.049772024154663,-8.68256950378418,-2.769925117492676
1680891128495514000,2.97251416015625,-1.0065901279449463,-6.340456008911133,-1.5273771286010742
1680891128505552600,2.982552734375,-1.259198546409607,-3.5949392318725586,-0.077056884765625
1680891128515591000,2.9925908203125,-1.1891978979110718,-0.6594552993774414,1.8779675960540771
1680891128525629400,3.00262939453125,0.06425940990447998,3.0851402282714844,2.327862501144409
1680891128535667700,3.012667724609375,-1.578378438949585,6.68985652923584,2.0222723484039307
1680891128545706200,3.022706298828125,-3.307343006134033,9.144408226013184,3.3972907066345215
1680891128555744500,3.03274462890625,-4.7852301597595215,9.497859001159668,4.599659442901611
1680891128565783000,3.042782958984375,-4.694392204284668,6.456273078918457,4.946855068206787
1680891128575821300,3.0528212890625,-3.476288318634033,3.8325886726379395,4.664754390716553
1680891128585859800,3.06285986328125,-1.4459558725357056,3.9503674507141113,4.609898567199707
1680891128595898400,3.0728984375,0.1627182960510254,5.13643741607666,4.755542755126953
1680891128605936600,3.0829365234375,0.5512295365333557,6.770315170288086,4.90643835067749
1680891128615975200,3.09297509765625,-4.337175369262695,8.77242374420166,5.395617961883545
1680891128626013400,3.103013427734375,-9.208857536315918,10.46523380279541,5.917370796203613
1680891128636052000,3.113052001953125,-3.351008176803589,10.02197551727295,5.42855167388916
1680891128646090500,3.123090576171875,1.2878777980804443,9.71293830871582,5.037889003753662
1680891128656128800,3.133128662109375,3.5451040267944336,10.013481140136719,5.137795448303223
1680891128666167300,3.143167236328125,4.648561477661133,10.79301643371582,5.491054534912109
1680891128676205600,3.15320556640625,4.863551139831543,10.754135131835938,5.4055328369140625
1680891128686244000,3.163244140625,4.889742851257324,10.880852699279785,5.049977779388428
1680891128696282400,3.173282470703125,4.877313613891602,11.06596565246582,4.748874187469482
1680891128706321000,3.18332080078125,4.637703895568848,11.440910339355469,4.635258674621582
1680891128716359200,3.193359130859375,4.3935441970825195,11.762225151062012,4.736509323120117
1680891128726397700,3.203397705078125,4.298287868499756,11.571634292602539,4.833425045013428
1680891128736436200,3.213436279296875,4.180913925170898,11.003421783447266,4.8948798179626465
1680891128746474500,3.223474609375,3.9930405616760254,10.458991050720215,4.879302024841309
1680891128756513000,3.233512939453125,3.7777013778686523,10.139533996582031,4.840811252593994
1680891128766551300,3.24355126953125,3.6797332763671875,9.978082656860352,4.812963008880615
1680891128776589800,3.25358984375,3.717986822128296,9.890752792358398,4.454004287719727
1680891128786628400,3.26362841796875,3.549109697341919,9.528837203979492,3.943563938140869
1680891128796666600,3.27366650390625,3.264711856842041,9.351273536682129,3.603175640106201
1680891128806705200,3.283705078125,3.0547449588775635,9.247693061828613,3.392408847808838
1680891128816743400,3.293743408203125,2.9310595989227295,9.192234992980957,3.3107151985168457
1680891128826782000,3.303781982421875,2.8197293281555176,9.207937240600586,3.2608137130737305
1680891128836820200,3.3138203125,2.6785926818847656,9.17495059967041,3.2578682899475098
1680891128846858800,3.323858642578125,2.527799367904663,9.214109420776367,3.2229037284851074
1680891128856897300,3.333897216796875,2.4516892433166504,9.194616317749023,3.202556610107422
1680891128866935600,3.343935546875,2.4094784259796143,9.000301361083984,3.1910974979400635
1680891128876974000,3.35397412109375,2.296347141265869,8.648348808288574,3.210116386413574
1680891128887012400,3.364012451171875,2.051572799682617,8.297788619995117,3.270357131958008
1680891128897051000,3.37405078125,-1.550501823425293,7.711361885070801,3.178675651550293
1680891128907089400,3.38408935546875,-10.850549697875977,5.716543674468994,2.399657726287842
1680891128917127700,3.394127685546875,-11.647098541259766,3.9846129417419434,0.41185760498046875
1680891128927166200,3.404166259765625,-5.7129316329956055,2.588221549987793,-1.1617240905761719
1680891128937204500,3.41420458984375,-0.4366018772125244,3.4020767211914062,-0.48473095893859863
1680891128947243000,3.424242919921875,-6.397499084472656,1.2799005508422852,-1.0240800380706787
1680891128957281300,3.43428125,-16.49857521057129,-3.498493194580078,-3.631261110305786
1680891128967319800,3.44431982421875,-3.1933541297912598,-7.429327964782715,-4.701801300048828
1680891128977358000,3.454358154296875,5.024980068206787,-17.887298583984375,-10.663848876953125
1680891128987396600,3.464396728515625,6.244925022125244,-27.90076446533203,-16.861040115356445
1680891128997435100,3.47443505859375,2.646613597869873,-45.18254852294922,-26.024442672729492
1680891129007473400,3.484473388671875,-0.5655770301818848,-59.89209747314453,-25.52250862121582
1680891129017512000,3.494511962890625,-0.9830291271209717,-55.24760055541992,-9.81806755065918
1680891129027550200,3.50455029296875,-4.178436756134033,-36.09583282470703,-0.9128003120422363
1680891129037588700,3.514588623046875,-11.139296531677246,-17.065814971923828,1.0954195261001587
1680891129047627300,3.524627197265625,-14.53557014465332,-6.113156318664551,1.9604105949401855
1680891129057665500,3.53466552734375,-14.849117279052734,-0.7800722122192383,1.7634947299957275
1680891129067704000,3.5447041015625,-9.330678939819336,-0.8844356536865234,0.7741715908050537
1680891129077742300,3.554742431640625,-3.3818252086639404,-4.43991756439209,-2.214054822921753
1680891129087780900,3.56478076171875,-0.35887575149536133,-8.337657928466797,-6.407232284545898
1680891129097819400,3.5748193359375,4.88070011138916,-13.691832542419434,-8.422872543334961
1680891129107857700,3.584857666015625,5.368704319000244,-17.013349533081055,-8.058749198913574
1680891129117896200,3.594896240234375,3.778771162033081,-17.243255615234375,-5.822257995605469
1680891129127934500,3.6049345703125,2.5660438537597656,-14.4818696975708,-4.531265735626221
1680891129137973000,3.614972900390625,2.091980218887329,-10.64917278289795,-3.2898454666137695
1680891129148011300,3.62501123046875,2.6779375076293945,-7.786748886108398,-1.052248477935791
1680891129158049800,3.6350498046875,2.8319413661956787,-5.76850700378418,1.2923521995544434
1680891129168088300,3.64508837890625,1.7480356693267822,-3.272984504699707,2.246276617050171
1680891129178126600,3.655126708984375,1.3135507106781006,-0.1992349624633789,2.9639601707458496
1680891129188165000,3.6651650390625,0.3543771207332611,2.0073904991149902,2.90143084526062
1680891129198203400,3.675203369140625,-1.04457688331604,3.3572144508361816,3.3234455585479736
1680891129208242000,3.685241943359375,-2.3215930461883545,4.502583026885986,3.99644136428833
1680891129218280400,3.695280517578125,-2.924283266067505,5.87282657623291,4.810050964355469
1680891129228318700,3.705318603515625,-4.203439712524414,8.15682315826416,5.767577171325684
1680891129238357200,3.715357177734375,-7.75722599029541,10.989896774291992,6.495288372039795
1680891129248395500,3.7253955078125,-10.632076263427734,13.0594482421875,6.7121477127075195
1680891129258434000,3.73543408203125,-8.78674030303955,13.581863403320312,7.390564918518066
1680891129268472600,3.74547265625,-3.975161552429199,12.919551849365234,7.690953254699707
1680891129278510800,3.7555107421875,0.43645429611206055,11.91415023803711,7.625073432922363
1680891129288549400,3.76554931640625,2.851560115814209,10.970586776733398,7.330648422241211
1680891129298587600,3.775587646484375,3.6396782398223877,10.316180229187012,7.18635368347168
1680891129308626200,3.785626220703125,3.67191219329834,9.881925582885742,7.111823558807373
1680891129318664400,3.79566455078125,3.572984218597412,9.73715591430664,7.1886420249938965
1680891129328703000,3.805702880859375,3.8244788646698,9.788537979125977,7.6485819816589355
1680891129338741500,3.815741455078125,3.8699679374694824,9.730460166931152,8.143441200256348
1680891129348779800,3.82577978515625,3.3819684982299805,9.481077194213867,8.286890029907227
1680891129358818300,3.835818359375,3.0054948329925537,9.183053970336914,8.52900505065918
1680891129368856600,3.845856689453125,2.7742834091186523,8.817238807678223,8.805606842041016
1680891129378895000,3.85589501953125,2.655879259109497,8.39087200164795,8.752549171447754
1680891129388933600,3.86593359375,2.5774600505828857,7.962122440338135,8.579818725585938
1680891129398972000,3.875971923828125,2.5362000465393066,7.63955020904541,8.472860336303711
1680891129409010400,3.886010498046875,2.4158084392547607,7.467872142791748,8.245857238769531
1680891129419048700,3.896048583984375,2.3899290561676025,7.39452600479126,7.959073066711426
1680891129429087200,3.906087158203125,2.469434976577759,7.45274019241333,7.365943908691406
1680891129439125800,3.916125732421875,2.5266687870025635,7.675090789794922,6.808786392211914
1680891129449164000,3.9261640625,2.41888427734375,7.888426303863525,6.3868303298950195
1680891129459202600,3.93620263671875,2.1525840759277344,8.040698051452637,6.1562724113464355
1680891129469240800,3.94624072265625,1.8423089981079102,8.137434005737305,5.950563907623291
1680891129479279400,3.956279296875,1.5315310955047607,8.288958549499512,5.789848327636719
1680891129489318000,3.96631787109375,1.1662704944610596,8.38276481628418,5.603914737701416
1680891129499356200,3.976356201171875,0.7794302701950073,8.461398124694824,5.39724063873291
1680891129509394700,3.986394775390625,0.058490753173828125,8.56486988067627,5.039633274078369
1680891129519433000,3.996432861328125,-1.4117021560668945,8.592516899108887,4.49651575088501
1680891129529471500,4.006471435546875,-3.4645700454711914,7.8911333084106445,4.160980224609375
1680891129539510000,4.016510009765625,-9.112977981567383,6.37130069732666,3.5997087955474854
1680891129549548300,4.02654833984375,-9.00395393371582,5.385450839996338,3.2996819019317627
1680891129559586800,4.0365869140625,-3.801182746887207,5.205774784088135,3.216001510620117
1680891129569625000,4.046625,-1.712977409362793,4.787215232849121,2.659752368927002
1680891129579663600,4.05666357421875,-0.09676337242126465,4.950572967529297,2.9003968238830566
1680891129589702100,4.0667021484375,-1.91842520236969,3.856661796569824,2.185201406478882
1680891129599740400,4.076740478515625,-8.609033584594727,-0.2020711898803711,-0.6877017021179199
1680891129609779000,4.086779052734375,3.119114398956299,-1.538447380065918,-1.30015230178833
1680891129619817200,4.096817138671875,5.896913528442383,-13.844645500183105,-16.317127227783203
1680891129629855700,4.106855712890625,3.7837424278259277,-34.13246154785156,-34.79488754272461
1680891129639894300,4.116894287109375,6.082283973693848,-59.25587844848633,-55.92132568359375
1680891129649932500,4.1269326171875,9.296628952026367,-67.65814208984375,-43.463401794433594
1680891129659971000,4.13697119140625,3.9379642009735107,-63.131282806396484,-27.73748779296875
1680891129670009300,4.14700927734375,-2.860579490661621,-50.79800796508789,-18.259958267211914
1680891129680047900,4.1570478515625,-6.716756820678711,-29.003604888916016,-10.956204414367676
1680891129690086400,4.16708642578125,-8.598624229431152,-14.847411155700684,-10.140453338623047
1680891129700124700,4.177124755859375,-10.955801010131836,-7.010765075683594,-8.760770797729492
1680891129710163200,4.1871630859375,-13.039902687072754,-3.7894997596740723,-7.2465291023254395
1680891129720201500,4.197201416015625,-12.934873580932617,-3.5352072715759277,-5.765615463256836
1680891129730240000,4.207239990234375,-9.095973014831543,-4.39749813079834,-4.090211391448975
1680891129740278500,4.217278564453125,-4.473144054412842,-4.580163955688477,-2.7476534843444824
1680891129750316800,4.22731689453125,-1.0399812459945679,-4.466954231262207,-1.0992169380187988
1680891129760355300,4.237355224609375,1.5513805150985718,-3.3408455848693848,1.7269105911254883
1680891129770393600,4.2473935546875,3.1886417865753174,-1.924520492553711,4.001672744750977
1680891129780432100,4.25743212890625,5.782533168792725,-0.6500453948974609,6.594088554382324
1680891129790470700,4.267470703125,3.7806947231292725,0.8144569396972656,8.203695297241211
1680891129800509000,4.277509033203125,1.385636329650879,1.8987326622009277,8.859786987304688
1680891129810547500,4.28754736328125,1.0819180011749268,3.009401798248291,9.225434303283691
1680891129820585700,4.297585693359375,0.3254830539226532,3.9123570919036865,9.494612693786621
1680891129830624300,4.307624267578125,-0.23587188124656677,5.117992401123047,9.714948654174805
1680891129840662800,4.317662841796875,-0.708383321762085,6.533991813659668,10.061599731445312
1680891129850701000,4.327701171875,-1.9038506746292114,8.33984375,9.522101402282715
1680891129860739600,4.337739501953125,-2.57692551612854,9.179109573364258,9.577882766723633
1680891129870778000,4.347778076171875,-1.459224820137024,9.198387145996094,9.989995002746582
1680891129880816400,4.35781640625,0.3616994619369507,8.88602066040039,10.3915433883667
1680891129890855000,4.36785498046875,2.257229804992676,8.613486289978027,10.665535926818848
1680891129900893200,4.37789306640625,3.4558591842651367,8.504905700683594,11.034599304199219
1680891129910931700,4.387931640625,4.084237098693848,8.49152660369873,11.163897514343262
1680891129920970200,4.39797021484375,4.33448600769043,8.548254013061523,11.180736541748047
1680891129931008500,4.408008544921875,4.3802642822265625,8.74140739440918,12.091712951660156
1680891129941047000,4.418047119140625,4.332113265991211,8.88009262084961,12.249092102050781
1680891129951085300,4.428085205078125,4.043927192687988,8.973069190979004,12.053596496582031
1680891129961123800,4.438123779296875,3.7285375595092773,8.957042694091797,11.467350006103516
1680891129971162400,4.448162353515625,3.569915771484375,8.598346710205078,10.18242073059082
1680891129981200600,4.45820068359375,3.570542812347412,7.991757869720459,9.047698974609375
1680891129991239200,4.4682392578125,3.594115734100342,7.470944404602051,8.380045890808105
1680891130001277700,4.478277587890625,3.4857687950134277,6.977466583251953,8.133889198303223
1680891130011316000,4.48831591796875,3.3464419841766357,6.513317584991455,8.074638366699219
1680891130021354500,4.4983544921875,3.306652069091797,6.153572082519531,7.916289329528809
1680891130031392800,4.508392822265625,3.3160390853881836,5.894775390625,7.69511604309082
1680891130041431300,4.518431396484375,3.2621610164642334,5.705620765686035,7.49895715713501
1680891130051469800,4.5284697265625,3.1922671794891357,5.608322620391846,7.34283971786499
1680891130061508000,4.538508056640625,3.098968505859375,5.605216979980469,7.194966793060303
1680891130071546600,4.548546630859375,2.8384952545166016,5.632180213928223,7.173849105834961
1680891130081585000,4.5585849609375,2.389214515686035,5.657566070556641,7.22703742980957
1680891130091623400,4.56862353515625,1.8383647203445435,5.611262321472168,7.374007225036621
1680891130101662000,4.578661865234375,1.1551501750946045,5.540742874145508,7.498059272766113
1680891130111700200,4.5887001953125,-1.377301573753357,4.88361930847168,7.564048767089844
1680891130121738800,4.59873876953125,-10.895551681518555,2.687399387359619,6.722973823547363
1680891130131777300,4.60877734375,-12.182784080505371,1.6419777870178223,5.457490921020508
1680891130141815600,4.618815673828125,-1.0408637523651123,3.433523416519165,6.496531009674072
1680891130151854000,4.62885400390625,0.5256075263023376,4.0228447914123535,5.533332824707031
1680891130161892400,4.638892333984375,1.5932258367538452,4.557483673095703,5.16952657699585
1680891130171931000,4.648930908203125,2.413257598876953,4.852787971496582,4.749081611633301
1680891130181969400,4.658969482421875,1.7738569974899292,4.540408134460449,3.962825059890747
1680891130192007700,4.669007568359375,-2.7576870918273926,1.4668231010437012,-0.012363910675048828
1680891130202046200,4.679046142578125,-1.47993004322052,-8.351936340332031,-18.887676239013672
1680891130212084500,4.68908447265625,3.9398512840270996,-21.69297218322754,-41.35502243041992
1680891130222123000,4.699123046875,8.289628028869629,-37.05447006225586,-59.913330078125
1680891130232161500,4.70916162109375,8.00497817993164,-42.94347381591797,-45.218299865722656
1680891130242199800,4.71919970703125,8.073287963867188,-42.17675018310547,-27.72434425354004
1680891130252238300,4.72923828125,1.6219507455825806,-35.97631072998047,-15.730395317077637
1680891130262276900,4.73927685546875,-2.7036333084106445,-21.583457946777344,-15.932808876037598
1680891130272315100,4.749315185546875,-5.707607269287109,-10.927178382873535,-20.695510864257812
1680891130282353700,4.759353759765625,-16.374217987060547,-2.0247530937194824,-16.36072540283203
1680891130292392000,4.769391845703125,-25.21589469909668,3.782214403152466,-12.977391242980957
1680891130302430500,4.779430419921875,-16.628416061401367,2.842057704925537,-9.637351036071777
1680891130312469000,4.789468994140625,-10.210771560668945,0.15249919891357422,-11.469149589538574
1680891130322507300,4.79950732421875,-6.602619171142578,-2.4703121185302734,-16.434249877929688
1680891130332545800,4.8095458984375,-1.525719165802002,-6.712038040161133,-17.41550064086914
1680891130342584300,4.819584228515625,3.5089237689971924,-9.057561874389648,-14.114691734313965
1680891130352622600,4.82962255859375,3.4270520210266113,-10.301130294799805,-10.64769458770752
1680891130362661000,4.8396611328125,2.4171981811523438,-10.309470176696777,-5.813787460327148
1680891130372699600,4.84969970703125,2.9392757415771484,-9.417972564697266,-0.863743782043457
1680891130382738000,4.859738037109375,4.444843769073486,-8.413199424743652,3.308227062225342
1680891130392776400,4.8697763671875,5.706077575683594,-6.94601583480835,6.643083572387695
1680891130402814700,4.879814697265625,6.816015243530273,-4.986422538757324,9.1430082321167
1680891130412853200,4.889853271484375,7.221626281738281,-3.108813524246216,10.954962730407715
1680891130422891800,4.899891845703125,6.5342254638671875,-1.8145802021026611,12.163344383239746
1680891130432930000,4.909929931640625,4.828645706176758,-0.5714070796966553,11.848581314086914
1680891130442968600,4.919968505859375,2.6914074420928955,0.08860397338867188,10.878752708435059
1680891130453007000,4.930007080078125,0.9638090133666992,0.7281591892242432,11.307027816772461
1680891130463045400,4.94004541015625,0.41640743613243103,1.6697759628295898,12.286325454711914
1680891130473084000,4.950083984375,-0.116643026471138,3.080770969390869,12.792427062988281
1680891130483122400,4.960122314453125,-1.0728169679641724,4.367722511291504,12.306051254272461
1680891130493160700,4.97016064453125,-2.5237972736358643,5.2687177658081055,11.978907585144043
1680891130503199200,4.98019921875,-2.8949990272521973,5.738607406616211,12.087715148925781
1680891130513237500,4.990237548828125,-2.2637877464294434,5.398954391479492,13.11368465423584
1680891130523276000,5.000276123046875,-1.2673826217651367,4.974935531616211,13.579139709472656
1680891130533314600,5.010314453125,-0.9205449819564819,4.441783905029297,13.191400527954102
1680891130543352800,5.020352783203125,-0.829936146736145,3.993055820465088,12.522090911865234
1680891130553391400,5.030391357421875,-0.8338685035705566,3.8146438598632812,12.285660743713379
1680891130563430000,5.040429931640625,-0.8782799243927002,3.894497871398926,12.425640106201172
1680891130573468200,5.05046826171875,-0.9753413200378418,3.9510602951049805,12.577083587646484
1680891130583506700,5.060506591796875,-0.9493327736854553,3.8250770568847656,12.640331268310547
1680891130593545000,5.070544921875,-0.6856123805046082,3.6095662117004395,12.422528266906738
1680891130603583500,5.08058349609375,-0.14139199256896973,3.2258739471435547,11.177181243896484
1680891130613622000,5.0906220703125,0.5128145217895508,2.8601841926574707,10.055024147033691
1680891130623660300,5.100660400390625,1.01361083984375,2.606826066970825,9.346147537231445
1680891130633698800,5.11069873046875,1.3761491775512695,2.417477607727051,8.889411926269531
1680891130643737300,5.1207373046875,1.6427183151245117,2.303208351135254,8.524234771728516
1680891130653775600,5.130775634765625,1.6921119689941406,2.111117124557495,8.16646957397461
1680891130663814100,5.140814208984375,1.7096383571624756,1.7185217142105103,8.055679321289062
1680891130673852700,5.150852783203125,1.8443081378936768,1.4637058973312378,8.05594253540039
1680891130683891000,5.160890869140625,2.1617603302001953,1.3284763097763062,8.16692066192627
1680891130693929500,5.170929443359375,2.4513654708862305,1.2467787265777588,8.436185836791992
1680891130703968000,5.180968017578125,2.5120632648468018,1.3159499168395996,9.360064506530762
1680891130714006300,5.19100634765625,2.1878058910369873,1.2554506063461304,10.341715812683105
1680891130724044800,5.201044921875,1.718457818031311,0.7898359298706055,10.950271606445312
1680891130734083000,5.2110830078125,0.3906266689300537,-0.3324582576751709,11.128009796142578
1680891130744121600,5.22112158203125,-2.5049476623535156,-2.731698989868164,10.16303825378418
1680891130754160000,5.23116015625,-0.6100907325744629,-1.5477333068847656,8.002248764038086
1680891130764198400,5.241198486328125,-2.3953731060028076,-0.2979550361633301,4.9766998291015625
1680891130774237000,5.25123681640625,-2.980210304260254,1.1408696174621582,2.7942075729370117
1680891130784275500,5.261275390625,-1.6643781661987305,1.9792470932006836,0.7852835655212402
1680891130794313700,5.271313720703125,-1.0109764337539673,2.2255117893218994,-3.2356295585632324
1680891130804352300,5.281352294921875,-4.518250465393066,0.877528190612793,-12.100346565246582
1680891130814390800,5.291390869140625,-3.187871217727661,-1.6114110946655273,-25.762426376342773
1680891130824429000,5.301428955078125,1.7820165157318115,-4.045501708984375,-37.646453857421875
1680891130834467600,5.311467529296875,3.599236488342285,-6.738379001617432,-41.763118743896484
1680891130844506000,5.321506103515625,4.420588970184326,-8.909645080566406,-32.743507385253906
1680891130854544400,5.33154443359375,4.073364734649658,-13.743776321411133,-27.966739654541016
1680891130864583000,5.3415830078125,3.485598087310791,-16.44542694091797,-26.828914642333984
1680891130874621200,5.35162109375,1.2810797691345215,-12.547271728515625,-20.66680908203125
1680891130884659700,5.36165966796875,-3.829610824584961,-8.19336986541748,-11.378488540649414
1680891130894698200,5.3716982421875,-11.113597869873047,-4.0345940589904785,-4.604281425476074
1680891130904736500,5.381736572265625,-15.107276916503906,-0.9796557426452637,-1.5201406478881836
1680891130914775000,5.391775146484375,-13.699474334716797,0.6188755035400391,-3.88034725189209
1680891130924813600,5.4018134765625,-9.868584632873535,1.2944798469543457,-9.356194496154785
1680891130934851800,5.411851806640625,-5.952232360839844,1.389965295791626,-13.625877380371094
1680891130944890400,5.421890380859375,-2.7988100051879883,0.7940781116485596,-17.7508544921875
1680891130954929000,5.431928955078125,0.5136868357658386,-1.2561795711517334,-21.654441833496094
1680891130964967200,5.44196728515625,3.4423105716705322,-3.5593223571777344,-21.603435516357422
1680891130975005700,5.452005615234375,4.456720352172852,-5.2387237548828125,-17.318466186523438
1680891130985044200,5.462044189453125,4.354302406311035,-5.917030334472656,-12.76550579071045
1680891130995082500,5.47208251953125,4.2376708984375,-6.006042003631592,-9.036751747131348
1680891131005121000,5.48212109375,4.217766761779785,-5.247175216674805,-6.796327590942383
1680891131015159600,5.49215966796875,4.049572944641113,-4.739286422729492,-4.544185638427734
1680891131025197800,5.50219775390625,3.337974786758423,-4.291347503662109,-2.642378807067871
1680891131035236400,5.512236328125,3.274123191833496,-3.8335227966308594,-0.1877908706665039
1680891131045275000,5.52227490234375,3.271474599838257,-3.233309030532837,2.977545738220215
1680891131055313200,5.532313232421875,3.48347806930542,-2.1471407413482666,6.077556610107422
1680891131065351700,5.5423515625,2.294157028198242,-0.6454769372940063,7.350035667419434
1680891131075390000,5.552389892578125,1.5412546396255493,0.1420522928237915,8.661442756652832
1680891131085428500,5.562428466796875,0.816952645778656,0.32338470220565796,9.958650588989258
1680891131095467000,5.572467041015625,-0.3229745626449585,0.2130885124206543,9.684731483459473
1680891131105505300,5.58250537109375,-1.0824880599975586,0.25948041677474976,9.98713207244873
1680891131115543800,5.592543701171875,-1.782423734664917,0.34872835874557495,11.082409858703613
1680891131125582300,5.602582275390625,-2.4865164756774902,0.6843794584274292,12.357587814331055
1680891131135620600,5.61262060546875,-3.839418649673462,1.037989854812622,13.712190628051758
1680891131145659100,5.6226591796875,-5.851354598999023,0.9485232830047607,14.503572463989258
1680891131155697700,5.63269775390625,-6.120327949523926,0.14910516142845154,15.047130584716797
1680891131165736000,5.64273583984375,-4.272381782531738,-0.9377918243408203,14.845481872558594
1680891131175774500,5.6527744140625,-1.8700730800628662,-1.4356094598770142,14.426140785217285
1680891131185813000,5.66281298828125,0.23123550415039062,-1.3697540760040283,14.16733169555664
1680891131195851300,5.672851318359375,1.720170259475708,-1.1281665563583374,14.170513153076172
1680891131205889800,5.682889892578125,2.5950589179992676,-0.5917536020278931,14.190359115600586
1680891131215928300,5.69292822265625,2.862190008163452,-0.25900599360466003,13.233529090881348
1680891131225966600,5.702966552734375,2.7059054374694824,0.016848236322402954,11.620184898376465
1680891131236005000,5.713005126953125,2.5834171772003174,0.07910165190696716,10.221562385559082
1680891131246043600,5.723043701171875,2.5533785820007324,0.07527536153793335,9.37008285522461
1680891131256082000,5.73308203125,2.6096439361572266,-0.02764028310775757,8.883830070495605
1680891131266120400,5.743120361328125,2.5943377017974854,-0.1566358506679535,8.598169326782227
1680891131276159000,5.753158935546875,2.4954874515533447,-0.2805423140525818,8.458605766296387
1680891131286197200,5.763197265625,2.3092100620269775,-0.340597927570343,8.403676986694336
1680891131296235800,5.77323583984375,2.0833981037139893,-0.2937075197696686,8.510701179504395
1680891131306274300,5.7832744140625,1.775277853012085,-0.19929265975952148,8.785551071166992
1680891131316312600,5.7933125,1.2694764137268066,-0.26618409156799316,9.324112892150879
1680891131326351000,5.80335107421875,0.704551100730896,-0.45048603415489197,9.873156547546387
1680891131336389600,5.8133896484375,0.1767861247062683,-0.43611258268356323,10.313694953918457
1680891131346428000,5.823427978515625,-0.253919780254364,-0.31896793842315674,10.588379859924316
1680891131356466400,5.833466552734375,-0.42125242948532104,-0.294369637966156,10.815560340881348
1680891131366505000,5.8435048828125,-0.9863870143890381,-0.6285117268562317,10.697761535644531
1680891131376543200,5.853543212890625,-2.196897506713867,-1.3054014444351196,9.9033842086792
1680891131386581800,5.863581787109375,-4.243247032165527,-2.5686159133911133,8.62951374053955
1680891131396620300,5.873620361328125,-2.4782721996307373,-2.7878105640411377,7.646040916442871
1680891131406658600,5.883658447265625,-1.1355831623077393,-0.7800977230072021,6.228265762329102
1680891131416697000,5.893697021484375,-0.8487570285797119,0.9539461135864258,4.936409950256348
1680891131426735600,5.903735595703125,0.5415685772895813,1.833335280418396,2.705143451690674
1680891131436774000,5.91377392578125,1.9450507164001465,1.995369791984558,-0.24180316925048828
1680891131446812400,5.9238125,2.4861464500427246,2.0023176670074463,-5.884768486022949
1680891131456851000,5.933850830078125,0.9240913391113281,1.8923900127410889,-15.269267082214355
1680891131466889200,5.94388916015625,0.5539864301681519,0.1574704647064209,-27.510944366455078
1680891131476927700,5.953927734375,3.6449456214904785,-3.1110031604766846,-40.37071990966797
1680891131486966300,5.96396630859375,5.938847064971924,-6.775079727172852,-48.11385726928711
1680891131497004500,5.974004638671875,5.2611870765686035,-13.257672309875488,-36.13731384277344
1680891131507043000,5.98404296875,-0.15606939792633057,-14.21047592163086,-19.379480361938477
1680891131517081600,5.99408154296875,-4.288595676422119,-6.941702842712402,-11.785117149353027
1680891131527120000,6.004119873046875,-7.457762718200684,-0.31339025497436523,-8.674116134643555
1680891131537158400,6.014158447265625,-9.498735427856445,4.0567145347595215,-6.843101501464844
1680891131547197000,6.024197021484375,-10.32392692565918,6.697574615478516,-5.658878326416016
1680891131557235200,6.034235107421875,-8.44522476196289,7.542001247406006,-5.282136917114258
1680891131567273700,6.044273681640625,-5.387766361236572,7.237659931182861,-5.059953689575195
1680891131577312300,6.054312255859375,-3.339571475982666,6.213677883148193,-4.618335723876953
1680891131587350500,6.0643505859375,-1.9241952896118164,4.826444149017334,-4.358293533325195
1680891131597389000,6.07438916015625,-0.4107459783554077,2.9516708850860596,-4.793630599975586
1680891131607427600,6.084427490234375,1.2796318531036377,0.8034976720809937,-5.882207870483398
1680891131617465900,6.0944658203125,3.1074957847595215,-1.5775108337402344,-6.734201431274414
1680891131627504400,6.10450439453125,4.992574691772461,-4.383877754211426,-6.454287528991699
1680891131637543000,6.11454296875,5.895832061767578,-6.28323221206665,-5.034192085266113
1680891131647581200,6.124581298828125,4.95725679397583,-6.686456680297852,-4.055574417114258
1680891131657619700,6.13461962890625,3.7279443740844727,-5.685612678527832,-2.3959789276123047
1680891131667658200,6.144658203125,2.3369455337524414,-3.6359806060791016,-0.39496612548828125
1680891131677696500,6.154696533203125,1.1625690460205078,-1.829694151878357,1.7237958908081055
1680891131687735000,6.164735107421875,0.2525254487991333,-0.47170698642730713,3.774264335632324
1680891131697773600,6.174773681640625,-0.5667111873626709,0.519875168800354,5.3704752922058105
1680891131707811800,6.184811767578125,-1.288587212562561,1.2660751342773438,6.91716194152832
1680891131717850400,6.194850341796875,-1.9261841773986816,1.9607560634613037,8.158573150634766
1680891131727889000,6.204888916015625,-2.2253050804138184,2.307671308517456,8.86452865600586
1680891131737927400,6.214927490234375,-2.145171880722046,2.298186779022217,8.931705474853516
1680891131747965700,6.224965576171875,-1.8913295269012451,2.1693007946014404,8.358749389648438
1680891131758004200,6.235004150390625,-1.1485393047332764,1.7883366346359253,6.719474792480469
1680891131768042800,6.245042724609375,-0.2798818349838257,1.251696228981018,5.543294429779053
1680891131778081000,6.2550810546875,0.33107706904411316,0.5731595754623413,4.96351957321167
1680891131788119600,6.26511962890625,0.7468657493591309,-0.3176124095916748,3.92842435836792
1680891131798158000,6.275157958984375,0.745358943939209,-1.1937932968139648,2.93869686126709
1680891131808196400,6.2851962890625,0.5082536935806274,-1.9476059675216675,2.111138343811035
1680891131818235000,6.29523486328125,0.07123982906341553,-2.6445820331573486,1.6931076049804688
1680891131828273400,6.3052734375,-0.3450927436351776,-3.1103439331054688,1.353780746459961
1680891131838311700,6.315311767578125,-0.7495599985122681,-3.273838996887207,0.8567485809326172
1680891131848350200,6.32535009765625,-1.2056970596313477,-3.0391972064971924,0.06169891357421875
1680891131858388700,6.335388671875,-1.4143428802490234,-2.423250675201416,-0.8132209777832031
1680891131868427000,6.345427001953125,-1.2713068723678589,-1.7060582637786865,-1.5000123977661133
1680891131878465500,6.355465576171875,-0.8853951692581177,-1.2447755336761475,-1.6333866119384766
1680891131888504000,6.365504150390625,-0.2883111238479614,-1.2138750553131104,-1.1978778839111328
1680891131898542600,6.37554248046875,0.3370799124240875,-1.3913310766220093,-0.2186717987060547
1680891131908580900,6.385580810546875,0.782926082611084,-1.6984641551971436,0.8726749420166016
1680891131918619400,6.395619384765625,0.9238450527191162,-2.088467597961426,1.681356430053711
1680891131928657700,6.40565771484375,0.97530198097229,-2.4740054607391357,2.2701292037963867
1680891131938696200,6.4156962890625,0.9327525496482849,-2.765829563140869,2.96425199508667
1680891131948734700,6.425734619140625,0.9583605527877808,-2.84401273727417,3.5431809425354004
1680891131958773200,6.435773193359375,0.9867318868637085,-2.8315601348876953,4.0277485847473145
1680891131968811500,6.4458115234375,0.6921679377555847,-2.6241097450256348,4.630028247833252
1680891131978850000,6.45585009765625,-0.08148425817489624,-2.1763722896575928,5.237083911895752
1680891131988888600,6.465888671875,-1.731257438659668,-1.6363625526428223,5.666142463684082
1680891131998926800,6.4759267578125,-3.722839832305908,-1.109249472618103,5.927711009979248
1680891132008965400,6.48596533203125,-4.605608940124512,-1.0049294233322144,6.042225360870361
1680891132019004000,6.49600390625,-5.298891544342041,-1.7698216438293457,5.790564060211182
1680891132029042400,6.50604248046875,-5.216541290283203,-2.5091376304626465,5.6201171875
1680891132039080700,6.516080810546875,-4.338629722595215,-2.5712456703186035,4.930098056793213
1680891132049119200,6.526119140625,-3.2816615104675293,-2.3673810958862305,3.9027209281921387
1680891132059157500,6.536157470703125,-2.5869240760803223,-1.7609364986419678,2.5923519134521484
1680891132069196000,6.546196044921875,-1.8730804920196533,-0.7569599151611328,-0.12252426147460938
1680891132079234600,6.556234619140625,-0.8357157707214355,0.6576464176177979,-3.01259708404541
1680891132089273000,6.566273193359375,0.3339998722076416,1.4449183940887451,-5.760930061340332
1680891132099311400,6.576311279296875,1.4944541454315186,0.9218542575836182,-9.492727279663086
1680891132109350000,6.586349853515625,2.402118444442749,-0.13360309600830078,-14.414047241210938
1680891132119388400,6.596388427734375,3.0852794647216797,-1.6032662391662598,-18.846317291259766
1680891132129426700,6.6064267578125,4.782355785369873,-2.8258378505706787,-21.274147033691406
1680891132139465200,6.61646533203125,5.7271575927734375,-3.643040418624878,-22.086654663085938
1680891132149503700,6.626503662109375,5.333913803100586,-3.6612908840179443,-22.654834747314453
1680891132159542300,6.636542236328125,3.9508957862854004,-2.303706169128418,-24.232040405273438
1680891132169580500,6.64658056640625,2.754699230194092,-0.40922272205352783,-24.356426239013672
1680891132179619000,6.656619140625,1.8370212316513062,0.514954686164856,-21.129505157470703
1680891132189657600,6.66665771484375,1.0947048664093018,0.8378475904464722,-16.488330841064453
1680891132199696000,6.67669580078125,-0.04771065711975098,0.9854536056518555,-13.899511337280273
1680891132209734400,6.686734375,-1.4054197072982788,1.4315205812454224,-11.088945388793945
1680891132219773000,6.69677294921875,-2.324323892593384,1.4578568935394287,-8.530826568603516
1680891132229811200,6.706811279296875,-2.1892199516296387,1.2986564636230469,-6.423854827880859
1680891132239849700,6.716849609375,-2.394808053970337,1.1479506492614746,-3.2558937072753906
1680891132249888300,6.72688818359375,-3.5330793857574463,1.358947515487671,0.41936779022216797
1680891132259926800,6.7369267578125,-4.80202579498291,1.5016064643859863,4.102072715759277
1680891132269965000,6.746965087890625,-4.483922481536865,1.2261441946029663,6.866397857666016
1680891132280003600,6.757003662109375,-4.744779586791992,0.9682580232620239,8.614275932312012
1680891132290042000,6.7670419921875,-4.732053756713867,0.4958276152610779,9.172404289245605
1680891132300080400,6.777080322265625,-5.548041820526123,0.11314421892166138,10.454545021057129
1680891132310119000,6.787118896484375,-8.511502265930176,-0.0945776104927063,13.27328109741211
1680891132320157400,6.797157470703125,-12.335997581481934,-0.022762656211853027,15.82942008972168
1680891132330196000,6.807196044921875,-8.20795726776123,-0.11790433526039124,16.035425186157227
1680891132340234200,6.817234130859375,-0.3481481075286865,-0.17334726452827454,14.368436813354492
1680891132350272800,6.827272705078125,4.581631183624268,0.5359041094779968,12.74734878540039
1680891132360311300,6.837311279296875,6.0835065841674805,1.2984178066253662,12.043931007385254
1680891132370349600,6.847349609375,5.621776580810547,1.7700676918029785,11.693476676940918
1680891132380388000,6.85738818359375,4.352430820465088,1.8737163543701172,11.822195053100586
1680891132390426600,6.867426513671875,3.1404600143432617,1.884246587753296,12.095656394958496
1680891132400465000,6.87746484375,2.223612070083618,1.712037205696106,12.392036437988281
1680891132410503400,6.88750341796875,1.6947202682495117,1.4156734943389893,12.69758129119873
1680891132420542000,6.8975419921875,2.039576530456543,1.0512454509735107,12.714426040649414
1680891132430580500,6.90758056640625,2.872757911682129,0.7925311326980591,12.238838195800781
1680891132440618800,6.91761865234375,3.939864158630371,0.7999503016471863,11.44394588470459
1680891132450657300,6.9276572265625,4.542611122131348,0.8891269564628601,10.596463203430176
1680891132460695800,6.93769580078125,4.542907238006592,0.8782331943511963,9.725587844848633
1680891132470734000,6.947734130859375,4.20562744140625,0.8270405530929565,8.714070320129395
1680891132480772600,6.957772705078125,3.7646307945251465,0.6618523001670837,7.74468994140625
1680891132490811100,6.96781103515625,3.371906280517578,0.528691291809082,7.163114547729492
1680891132500849700,6.977849609375,2.9007742404937744,0.4617006182670593,7.25789737701416
1680891132510888000,6.987887939453125,2.3016464710235596,0.3973754346370697,7.996146202087402
1680891132520926500,6.997926513671875,1.8013136386871338,0.42725077271461487,8.803292274475098
1680891132530965000,7.007965087890625,1.514371395111084,0.5102217793464661,9.309860229492188
1680891132541003300,7.018003173828125,1.378881573677063,0.49397778511047363,9.596988677978516
1680891132551041800,7.028041748046875,1.2789580821990967,0.5123196840286255,9.810660362243652
1680891132561080300,7.038080322265625,1.1897920370101929,0.5274121165275574,10.079989433288574
1680891132571118600,7.04811865234375,1.1528183221817017,0.5099226832389832,10.18080997467041
1680891132581157000,7.0581572265625,1.024517297744751,0.3827929198741913,10.116704940795898
1680891132591195600,7.068195556640625,0.8642585277557373,0.1800999641418457,9.831252098083496
1680891132601234200,7.078234130859375,-14.093107223510742,-5.308579921722412,5.694460868835449
1680891132611272400,7.0882724609375,-8.99284839630127,-4.24879264831543,3.494473457336426
1680891132621311000,7.09831103515625,-3.9769363403320312,-0.6713181734085083,3.179823875427246
1680891132631349500,7.108349609375,-5.084432125091553,0.6594700813293457,0.471160888671875
1680891132641388000,7.118387939453125,-3.203543186187744,0.7801315784454346,-3.8229808807373047
1680891132651426300,7.12842626953125,0.5486617684364319,-0.11092507839202881,-12.431214332580566
1680891132661464800,7.13846484375,4.765769958496094,-0.04955291748046875,-27.771831512451172
1680891132671503400,7.14850341796875,5.322072505950928,-1.6453464031219482,-45.58087921142578
1680891132681541600,7.158541748046875,7.292211532592773,-5.675717353820801,-53.76513671875
1680891132691580200,7.168580078125,4.086048126220703,-8.423683166503906,-35.60429763793945
1680891132701618700,7.17861865234375,1.639574408531189,-11.262551307678223,-19.075298309326172
1680891132711657200,7.1886572265625,-3.3793323040008545,-12.118505477905273,-10.615612983703613
1680891132721695500,7.198695556640625,-8.719852447509766,-7.465742588043213,-6.657689094543457
1680891132731734000,7.208734130859375,-10.936259269714355,-2.357945203781128,-4.412471771240234
1680891132741772500,7.2187724609375,-9.161704063415527,1.4066212177276611,-4.5171661376953125
1680891132751811000,7.22881103515625,-5.702362537384033,3.7209434509277344,-5.20551872253418
1680891132761849300,7.238849365234375,-4.0732340812683105,4.858999252319336,-4.863407135009766
1680891132771887900,7.248887939453125,-2.0015947818756104,5.299492835998535,-4.084444046020508
1680891132781926400,7.258926513671875,0.4661787748336792,4.950984477996826,-2.906460762023926
1680891132791964700,7.268964599609375,2.9111809730529785,3.845069646835327,-1.404597282409668
1680891132802003200,7.279003173828125,4.454922676086426,2.6792707443237305,-0.08131122589111328
1680891132812041700,7.289041748046875,4.5809173583984375,1.424448847770691,0.42134857177734375
1680891132822080000,7.299080078125,3.6750240325927734,0.3138606548309326,0.6888618469238281
1680891132832118500,7.309118408203125,2.6867146492004395,-0.14428794384002686,0.6291379928588867
1680891132842157000,7.319156982421875,2.5491623878479004,-0.4804988503456116,1.373795509338379
1680891132852195600,7.329195556640625,3.0396456718444824,-0.813734233379364,2.47982120513916
1680891132862233900,7.33923388671875,2.640230417251587,-1.3698482513427734,3.5145812034606934
1680891132872272400,7.3492724609375,1.549619197845459,-2.2057714462280273,4.258281707763672
1680891132882311000,7.359310791015625,0.5714446306228638,-2.8647751808166504,5.066926956176758
1680891132892349400,7.369349365234375,-0.05837970972061157,-2.8399391174316406,5.891765594482422
1680891132902387700,7.3793876953125,-0.771083414554596,-2.3361003398895264,6.508608818054199
1680891132912426200,7.38942626953125,-1.8687788248062134,-2.0300538539886475,7.181636810302734
1680891132922464800,7.39946484375,-2.774528980255127,-1.4130823612213135,7.59819221496582
1680891132932503300,7.40950341796875,-3.4586904048919678,-0.12225514650344849,7.286218643188477
1680891132942541600,7.41954150390625,-3.861581802368164,1.410886526107788,5.282873153686523
1680891132952580000,7.429580078125,-3.615196466445923,2.2142186164855957,2.7344722747802734
1680891132962618600,7.43961865234375,-3.070544719696045,2.2214090824127197,0.9490728378295898
1680891132972657200,7.4496572265625,-2.426919937133789,1.8170539140701294,-0.072784423828125
1680891132982695400,7.4596953125,-1.8158824443817139,1.1550577878952026,-0.7341203689575195
1680891132992734000,7.46973388671875,-1.3641656637191772,0.40041130781173706,-1.3199329376220703
1680891133002772500,7.4797724609375,-0.8171945810317993,-0.44730493426322937,-1.9615983963012695
1680891133012810800,7.489810791015625,0.06474572420120239,-1.3718514442443848,-2.427156448364258
1680891133022849300,7.499849365234375,0.7135229110717773,-2.2818119525909424,-2.7815093994140625
1680891133032887800,7.5098876953125,0.844038724899292,-3.1192874908447266,-2.826650619506836
1680891133042926300,7.51992626953125,0.7136983871459961,-3.8524701595306396,-2.018583297729492
1680891133052964600,7.529964599609375,0.4801903963088989,-4.229706287384033,-0.5742607116699219
1680891133063003100,7.540003173828125,0.29454681277275085,-4.107684135437012,0.8738880157470703
1680891133073041700,7.550041748046875,0.03709852695465088,-3.7359673976898193,1.7760086059570312
1680891133083080200,7.560080078125,-0.23200583457946777,-3.325272560119629,2.259746551513672
1680891133093118500,7.570118408203125,-0.5152617692947388,-2.908513069152832,2.643681526184082
1680891133103157000,7.580156982421875,-0.7852458357810974,-2.4314539432525635,2.913691520690918
1680891133113195500,7.590195556640625,-0.9911328554153442,-1.8698487281799316,3.0245718955993652
1680891133123234000,7.600234130859375,-1.1300272941589355,-1.334498405456543,2.8904409408569336
1680891133133272300,7.610272216796875,-1.1930134296417236,-0.8523839116096497,2.7837181091308594
1680891133143310800,7.620310791015625,-1.163536548614502,-0.518217146396637,2.8996739387512207
1680891133153349400,7.630349365234375,-1.065482258796692,-0.2309214472770691,3.3161067962646484
1680891133163388000,7.640387939453125,-0.9302838444709778,-0.034329622983932495,4.031712055206299
1680891133173426200,7.65042626953125,-0.6391461491584778,0.09777814149856567,4.987375736236572
1680891133183464700,7.660464599609375,-0.05067634582519531,0.19862273335456848,5.854357719421387
1680891133193503200,7.670503173828125,0.5233808755874634,0.2325403392314911,6.303579330444336
1680891133203541800,7.680541748046875,0.8088481426239014,0.25352340936660767,6.165926933288574
1680891133213580000,7.690580078125,1.3662137985229492,0.26835525035858154,6.240602970123291
1680891133223618600,7.70061865234375,1.1320021152496338,-0.015227198600769043,5.935630798339844
1680891133233657000,7.710656982421875,-0.44360625743865967,-1.0861165523529053,5.089208602905273
1680891133243695600,7.720695556640625,-2.6545627117156982,-2.1026368141174316,3.5953660011291504
1680891133253734000,7.73073388671875,-2.016986131668091,-1.2649588584899902,3.032179832458496
1680891133263772400,7.7407724609375,-0.8781757354736328,0.2953304052352905,3.0084633827209473
1680891133273811000,7.75081103515625,-0.21956372261047363,1.2545818090438843,2.712128162384033
1680891133283849500,7.760849365234375,-0.4478188753128052,2.1883440017700195,1.68410062789917
1680891133293887700,7.7708876953125,-1.7403030395507812,3.062723398208618,0.2093982696533203
1680891133303926300,7.78092626953125,-3.4236202239990234,3.593433141708374,-2.000155448913574
1680891133313964800,7.79096484375,-2.434684991836548,3.064357280731201,-4.769719123840332
1680891133324003000,7.801003173828125,-0.5891468524932861,1.6598472595214844,-8.84036636352539
1680891133334041600,7.81104150390625,0.48562467098236084,0.20958471298217773,-13.463289260864258
1680891133344080100,7.821080078125,1.3894827365875244,-1.2459440231323242,-18.118751525878906
1680891133354118700,7.83111865234375,2.168485164642334,-3.39060115814209,-23.540695190429688
1680891133364157000,7.841156982421875,3.2401559352874756,-5.434518814086914,-28.374652862548828
1680891133374195500,7.851195556640625,3.2208590507507324,-6.431102275848389,-29.32013702392578
1680891133384234000,7.86123388671875,1.694101095199585,-6.148146629333496,-25.90365982055664
1680891133394272500,7.8712724609375,-0.5291800498962402,-4.792597770690918,-20.895666122436523
1680891133404310800,7.881310791015625,-2.405742883682251,-3.678292989730835,-18.450668334960938
1680891133414349300,7.891349365234375,-3.7904415130615234,-2.3364851474761963,-17.145366668701172
1680891133424387800,7.901387939453125,-4.724917888641357,-0.665421724319458,-16.036483764648438
1680891133434426400,7.91142626953125,-4.842092990875244,1.1016511917114258,-14.570032119750977
1680891133444464600,7.921464599609375,-4.731871604919434,1.8664259910583496,-12.24624252319336
1680891133454503200,7.931503173828125,-4.503717422485352,1.028165340423584,-9.620034217834473
1680891133464541700,7.941541748046875,-2.963801860809326,0.13076460361480713,-6.459042549133301
1680891133474580200,7.951580322265625,-0.3903270959854126,-0.6088027954101562,-1.9446868896484375
1680891133484618500,7.961618408203125,1.8892863988876343,-0.9205742478370667,1.5882453918457031
1680891133494657000,7.971656982421875,3.398261308670044,-0.3211136758327484,3.7276735305786133
1680891133504695600,7.981695556640625,2.7224583625793457,-0.27643680572509766,6.151677131652832
1680891133514734000,7.991734130859375,1.1878764629364014,-1.1438335180282593,8.063824653625488
1680891133524772400,8.0017724609375,0.20391157269477844,-1.3700388669967651,8.17685604095459
1680891133534811000,8.011810791015625,-0.07923620939254761,-1.55306875705719,8.347057342529297
1680891133544849400,8.021849365234376,-0.3427296280860901,-1.8037859201431274,9.197463989257812
1680891133554888000,8.031887939453124,-0.6837986707687378,-1.784451961517334,10.669278144836426
1680891133564926200,8.04192626953125,-1.3291314840316772,-1.5789506435394287,12.064910888671875
1680891133574964700,8.05196484375,-3.5131547451019287,-1.7508012056350708,13.480093955993652
1680891133585003300,8.062003173828124,-6.613541603088379,-2.014310836791992,14.333183288574219
1680891133595041800,8.072041748046875,-5.996425151824951,-1.8465300798416138,14.339836120605469
1680891133605080300,8.082080322265625,-3.571153163909912,-1.2921042442321777,13.488912582397461
1680891133615118600,8.09211865234375,-1.0839173793792725,-0.6554200053215027,12.661139488220215
1680891133625157000,8.1021572265625,0.8912591934204102,-0.23089808225631714,12.15250301361084
1680891133635195600,8.112195556640625,2.1759254932403564,-0.02102261781692505,11.950408935546875
1680891133645234200,8.122234130859376,3.1118011474609375,-0.0010299086570739746,11.856546401977539
1680891133655272400,8.1322724609375,3.7268199920654297,-0.2413768172264099,12.01292610168457
1680891133665311000,8.14231103515625,4.24415397644043,-0.688935399055481,12.368667602539062
1680891133675349500,8.152349609375,4.56616735458374,-1.1646227836608887,12.743669509887695
1680891133685388000,8.162387939453126,4.564918518066406,-1.5909700393676758,13.19633674621582
1680891133695426300,8.17242626953125,4.143194198608398,-1.8958563804626465,13.272346496582031
1680891133705464800,8.18246484375,3.2384934425354004,-2.056084632873535,11.91259479522705
1680891133715503400,8.19250341796875,2.6119160652160645,-2.0880074501037598,10.447647094726562
1680891133725542000,8.2025419921875,2.412818193435669,-2.0769333839416504,9.49903678894043
1680891133735580200,8.212580078125,2.5766937732696533,-2.0075478553771973,8.846465110778809
1680891133745618700,8.22261865234375,2.9306774139404297,-1.8544353246688843,8.348145484924316
1680891133755657200,8.2326572265625,3.1582589149475098,-1.8097646236419678,8.092668533325195
1680891133765695700,8.24269580078125,3.1634156703948975,-1.7615458965301514,7.981104373931885
1680891133775734000,8.252734130859375,3.000850200653076,-1.6700794696807861,8.09532356262207
1680891133785772500,8.2627724609375,2.775934934616089,-1.5529474020004272,8.360795974731445
1680891133795811000,8.27281103515625,2.5035078525543213,-1.418637752532959,8.887259483337402
1680891133805849600,8.282849609375,2.2036211490631104,-1.324724793434143,9.45576000213623
1680891133815888100,8.29288818359375,1.8883883953094482,-1.2810043096542358,9.615804672241211
1680891133825926400,8.302926513671874,1.5819803476333618,-1.223720908164978,9.602423667907715
1680891133835965000,8.31296484375,1.2096319198608398,-1.2285854816436768,9.548093795776367
1680891133846003500,8.32300341796875,-9.607972145080566,-1.7992451190948486,6.701972007751465
1680891133856042000,8.3330419921875,-9.853230476379395,-2.4007091522216797,5.043962001800537
1680891133866080500,8.34308056640625,-0.7330818176269531,-2.479576349258423,8.234092712402344
1680891133876118800,8.353118896484375,-0.9455041885375977,-1.1980293989181519,8.022582054138184
1680891133886157300,8.3631572265625,-1.5152473449707031,0.3168044984340668,7.161683559417725
1680891133896195800,8.37319580078125,-0.20862054824829102,1.4246264696121216,5.105287075042725
1680891133906234400,8.383234375,2.174675941467285,1.7630239725112915,0.19650936126708984
1680891133916272600,8.393272705078125,2.013108253479004,3.141267776489258,-13.557697296142578
1680891133926311200,8.403311279296876,1.5562031269073486,3.769552230834961,-39.304443359375
1680891133936349700,8.413349609375,6.458570957183838,-0.27613770961761475,-68.04960632324219
1680891133946388200,8.42338818359375,9.238977432250977,-4.349619388580322,-68.8438720703125
1680891133956426500,8.433426513671876,3.019965648651123,-5.097977638244629,-44.22807312011719
1680891133966465000,8.443465087890624,-0.27438831329345703,-3.2911996841430664,-20.859100341796875
1680891133976503600,8.453503662109375,-3.2947754859924316,-2.15897274017334,-8.826661109924316
1680891133986542000,8.4635419921875,-6.128497123718262,-0.9594314098358154,-2.6892175674438477
1680891133996580600,8.47358056640625,-7.403924465179443,0.08294260501861572,0.716975212097168
1680891134006619000,8.483618896484375,-6.86732292175293,0.9727502465248108,1.9125375747680664
1680891134016657400,8.493657470703125,-5.527536869049072,1.27255380153656,1.2206392288208008
1680891134026696000,8.503696044921876,-3.825000286102295,1.0233701467514038,0.06232261657714844
1680891134036734500,8.513734375,-2.133549213409424,0.892321765422821,-0.613795280456543
1680891134046772700,8.523772705078125,-0.5770521759986877,0.7182698249816895,0.10731792449951172
1680891134056811300,8.533811279296875,0.3782218098640442,0.47404998540878296,1.2537689208984375
1680891134066849800,8.543849853515624,0.5350550413131714,0.16900408267974854,2.6539602279663086
1680891134076888300,8.553888427734375,0.3636572062969208,-0.12520451843738556,3.94113826751709
1680891134086926800,8.5639267578125,0.6132689714431763,-0.5289469957351685,5.222635746002197
1680891134096965000,8.573965087890626,1.1512246131896973,-0.8108869194984436,6.2837042808532715
1680891134107003600,8.584003662109374,1.340145230293274,-0.8323329091072083,6.719492435455322
1680891134117042200,8.594042236328125,1.3867994546890259,-0.8199890851974487,6.8286542892456055
1680891134127080700,8.604080810546876,1.493593692779541,-0.9252210855484009,6.96412992477417
1680891134137119000,8.614118896484374,1.4938673973083496,-0.9972391724586487,7.288858413696289
1680891134147157500,8.624157470703125,1.4309061765670776,-1.0829371213912964,7.6853227615356445
1680891134157196000,8.634196044921875,1.3748526573181152,-0.9810259938240051,8.176800727844238
1680891134167234600,8.644234619140626,1.3630017042160034,-0.779890775680542,8.514737129211426
1680891134177273000,8.654273193359375,1.2977674007415771,-0.4440092444419861,8.54240894317627
1680891134187311400,8.664311279296875,1.1691418886184692,-0.020401477813720703,8.258411407470703
1680891134197350000,8.674349853515626,1.0892374515533447,0.2990719974040985,7.441064357757568
1680891134207388400,8.684388427734374,1.1294280290603638,0.3251544237136841,5.987985610961914
1680891134217427000,8.694427001953125,1.228266954421997,0.24969297647476196,4.7525177001953125
1680891134227465500,8.704465576171875,1.4519858360290527,0.12888461351394653,3.3780322074890137
1680891134237503700,8.714503662109376,1.7744908332824707,0.05331158638000488,1.5829267501831055
1680891134247542300,8.724542236328125,2.118204116821289,0.07804885506629944,-0.9228296279907227
1680891134257580800,8.734580810546875,2.420201301574707,0.2049635648727417,-4.487953186035156
1680891134267619300,8.744619384765626,2.5041708946228027,0.0978730320930481,-9.051665306091309
1680891134277657900,8.754657958984374,2.239253282546997,-0.3429681658744812,-14.220932006835938
1680891134287696100,8.764696044921875,0.9413549900054932,-1.3571456670761108,-17.977018356323242
1680891134297734700,8.774734619140625,-2.3746252059936523,-1.91140615940094,-15.993084907531738
1680891134307773200,8.784773193359374,-5.396864414215088,-0.8909926414489746,-7.620719909667969
1680891134317811700,8.794811767578125,-5.732931137084961,-0.31594836711883545,-3.3041677474975586
1680891134327850200,8.804850341796875,-4.616703510284424,-0.1432504951953888,-1.1197900772094727
1680891134337888500,8.814888427734376,-3.164106845855713,-0.18208220601081848,-0.10041141510009766
1680891134347927000,8.824927001953125,-1.6461089849472046,-0.4019799828529358,0.5303688049316406
1680891134357965600,8.834965576171875,-0.4059363007545471,-0.7669907212257385,1.3313112258911133
1680891134368004000,8.845004150390626,0.9295240044593811,-1.0987972021102905,2.3920650482177734
1680891134378042400,8.85504248046875,1.7757987976074219,-1.1091595888137817,3.475484848022461
1680891134388081000,8.865080810546875,2.1336557865142822,-0.879854679107666,4.300164222717285
1680891134398119400,8.875119384765625,2.420336961746216,-0.6421599984169006,4.924999713897705
1680891134408158000,8.885157958984376,2.517885208129883,-0.41860291361808777,5.18884801864624
1680891134418196500,8.895196533203125,2.5927090644836426,-0.2934550344944,4.832047939300537
1680891134428234800,8.90523486328125,2.230633020401001,-0.234586700797081,3.9149184226989746
1680891134438273300,8.915273193359376,1.4973708391189575,-0.372808575630188,3.1120052337646484
1680891134448311800,8.925311767578124,0.588188111782074,-0.5571740865707397,2.540266513824463
1680891134458350300,8.935350341796875,-0.3786691129207611,-0.7563648223876953,2.156303882598877
1680891134468388900,8.945388916015625,-1.0917606353759766,-0.9968723058700562,2.086216926574707
1680891134478427100,8.95542724609375,-1.4653241634368896,-1.115385890007019,2.1594982147216797
1680891134488465700,8.965465576171875,-1.8126920461654663,-1.181447148323059,2.234412670135498
1680891134498504200,8.975504150390625,-2.337599039077759,-1.2745444774627686,2.3245434761047363
1680891134508542700,8.985542724609376,-2.857677936553955,-1.4802708625793457,2.4340052604675293
1680891134518581200,8.995581298828125,-2.931906223297119,-1.7212562561035156,2.7969627380371094
1680891134528619500,9.00561962890625,-2.3068180084228516,-1.7733778953552246,3.237171173095703
1680891134538658000,9.015657958984375,-0.836422860622406,-1.5540915727615356,3.889310836791992
1680891134548696600,9.025696533203124,1.0215744972229004,-1.1220495700836182,4.777237892150879
1680891134558735000,9.035735107421875,2.40461802482605,-0.9338179230690002,5.663605213165283
1680891134568773600,9.045773681640625,3.610896587371826,-1.0743671655654907,6.048108100891113
1680891134578812000,9.05581201171875,3.2002668380737305,-1.3784191608428955,5.83895206451416
1680891134588850400,9.065850341796875,1.9208574295043945,-2.3636796474456787,5.307109832763672
1680891134598889000,9.075888916015625,-0.4623144865036011,-1.9427391290664673,4.038599491119385
1680891134608927500,9.085927490234376,-3.1428539752960205,-0.7459208965301514,3.6592531204223633
1680891134618966000,9.095966064453124,-4.399141311645508,-0.4969453811645508,4.131993770599365
1680891134629004300,9.10600439453125,-3.4461112022399902,-1.0388339757919312,5.457599639892578
1680891134639042800,9.116042724609375,-2.6351189613342285,-1.513335943222046,5.872866630554199
1680891134649081300,9.126081298828124,-3.123718023300171,-1.6807632446289062,4.39018440246582
1680891134659119900,9.136119873046875,-4.449263572692871,-2.281696081161499,1.9066219329833984
1680891134669158400,9.146158447265625,-4.370838642120361,-0.8516051769256592,-0.9708786010742188
1680891134679196700,9.15619677734375,-3.056366205215454,0.7772649526596069,-3.3598318099975586
1680891134689235200,9.166235107421874,-0.5991725921630859,0.25946784019470215,-7.208725929260254
1680891134699273700,9.176273681640625,1.34831964969635,-0.18930673599243164,-12.974346160888672
1680891134709312300,9.186312255859375,2.527621269226074,-0.3474769592285156,-18.971393585205078
1680891134719350800,9.196350830078124,3.10107159614563,-1.526249647140503,-24.63663101196289
1680891134729389300,9.206389404296875,3.469529628753662,-2.602179527282715,-28.73666000366211
1680891134739427600,9.216427490234375,2.8603291511535645,-2.8265299797058105,-30.637969970703125
1680891134749466000,9.226466064453126,0.921177327632904,-1.4819711446762085,-30.562511444091797
1680891134759504600,9.236504638671875,-1.207871437072754,-0.19530224800109863,-24.837581634521484
1680891134769543200,9.246543212890625,-2.825263500213623,0.20230817794799805,-19.06978988647461
1680891134779581700,9.256581787109376,-4.019235134124756,0.2913477420806885,-16.294635772705078
1680891134789620000,9.266619873046874,-4.7919487953186035,0.1966174840927124,-15.456697463989258
1680891134799658500,9.276658447265625,-4.956401348114014,-0.08904552459716797,-14.761392593383789
1680891134809697000,9.286697021484375,-4.895096778869629,-0.33361709117889404,-13.324433326721191
1680891134819735600,9.296735595703124,-4.842494964599609,-0.5603426098823547,-10.422003746032715
1680891134829774000,9.306774169921875,-4.054924011230469,-0.9268598556518555,-6.426148414611816
1680891134839812400,9.316812255859375,-2.0602734088897705,-1.7508652210235596,-3.1947202682495117
1680891134849851000,9.326850830078126,0.9080337285995483,-2.594938039779663,0.17314910888671875
1680891134859889400,9.336889404296874,2.918996810913086,-1.9515929222106934,3.092625617980957
1680891134869928000,9.346927978515625,3.2776970863342285,-2.04457426071167,3.0313706398010254
1680891134879966500,9.356966552734375,1.685300588607788,-2.2252073287963867,3.8969244956970215
1680891134890005000,9.3670048828125,1.1558114290237427,-3.5490312576293945,5.073635578155518
1680891134900043300,9.377043212890625,0.8454378247261047,-3.5382328033447266,5.386545658111572
1680891134910081800,9.387081787109375,-0.2044239342212677,-3.198167562484741,6.042784214019775
1680891134920120300,9.397120361328126,-1.0672231912612915,-2.990981101989746,7.9907097816467285
1680891134930158800,9.407158935546875,-2.7503671646118164,-2.983743190765381,10.476908683776855
1680891134940197400,9.417197265625,-5.20726203918457,-3.2040014266967773,13.277434349060059
1680891134950235600,9.427235595703126,-6.604584693908691,-2.5560226440429688,15.314432144165039
1680891134960274200,9.437274169921874,-4.349521160125732,-1.4846283197402954,15.182287216186523
1680891134970312700,9.447312744140625,-1.0048881769180298,-0.48110419511795044,13.707830429077148
1680891134980351200,9.457351318359375,1.5553419589996338,-0.04187822341918945,12.424092292785645
1680891134990389800,9.4673896484375,2.9145853519439697,-0.1464296579360962,11.810187339782715
1680891135000428300,9.47742822265625,3.5783252716064453,-0.36915838718414307,11.70669937133789
1680891135010466600,9.487466552734375,4.041912078857422,-0.7820279002189636,11.973662376403809
1680891135020505000,9.497505126953126,4.1551737785339355,-1.262863278388977,12.309248924255371
1680891135030543600,9.507543701171874,3.7499303817749023,-1.6824195384979248,12.612590789794922
1680891135040582100,9.51758203125,2.949960470199585,-1.986199140548706,12.611522674560547
1680891135050620700,9.52762060546875,2.3083577156066895,-1.7666529417037964,11.011775016784668
1680891135060659200,9.5376591796875,1.9093515872955322,-1.450150489807129,9.381170272827148
1680891135070697500,9.547697509765625,1.7003850936889648,-1.3076921701431274,8.47028923034668
1680891135080736000,9.557736083984375,1.9772348403930664,-1.224626898765564,7.685561656951904
1680891135090774500,9.5677744140625,2.848287582397461,-1.2708446979522705,6.519679069519043
1680891135100813000,9.57781298828125,3.5674901008605957,-1.4624046087265015,5.323719501495361
1680891135110851600,9.5878515625,3.8755486011505127,-1.6685450077056885,4.609978199005127
1680891135120889900,9.597889892578126,3.860462188720703,-1.7853858470916748,5.248257637023926
1680891135130928400,9.607928466796874,3.446338653564453,-1.8867607116699219,7.472871780395508
1680891135140967000,9.617966796875,2.910797119140625,-1.8372693061828613,8.971299171447754
1680891135151005400,9.62800537109375,2.3348166942596436,-1.7536083459854126,9.889668464660645
1680891135161044000,9.6380439453125,1.9123491048812866,-1.7397305965423584,10.389396667480469
1680891135171082500,9.64808251953125,1.5551031827926636,-1.7287485599517822,10.47590160369873
1680891135181120800,9.658120849609375,1.253582239151001,-1.6544976234436035,10.244485855102539
1680891135191159300,9.6681591796875,-0.9555892944335938,-1.459274411201477,10.193781852722168
1680891135201197800,9.67819775390625,-2.0254971981048584,-1.299330234527588,10.94571304321289
1680891135211236400,9.688236328125,-1.62052583694458,-1.1047362089157104,11.480281829833984
1680891135221275000,9.69827490234375,-1.529268741607666,-1.0355844497680664,11.938984870910645
1680891135231313400,9.7083134765625,-2.2598087787628174,-1.2265005111694336,12.545218467712402
1680891135241351700,9.7183515625,-2.6849312782287598,-1.5153400897979736,11.547704696655273
1680891135251390200,9.72839013671875,-2.424828290939331,-1.2748252153396606,8.79590892791748
1680891135261428700,9.7384287109375,0.23521101474761963,-0.12806308269500732,8.92415714263916
1680891135271467300,9.74846728515625,0.003225088119506836,0.6006702184677124,8.750096321105957
1680891135281505800,9.758505859375,-0.4866678714752197,0.9212583303451538,8.529565811157227
1680891135291544300,9.76854443359375,0.2600219249725342,1.1394383907318115,8.750651359558105
1680891135301582600,9.77858251953125,0.17911601066589355,2.189729928970337,6.214242935180664
1680891135311621000,9.78862109375,-1.6298954486846924,3.377603769302368,-9.216819763183594
1680891135321659600,9.79865966796875,2.3690240383148193,3.140119791030884,-46.603416442871094
1680891135331698200,9.8086982421875,7.55499267578125,-1.8464686870574951,-68.96365356445312
1680891135341736700,9.81873681640625,2.5986227989196777,-4.718151569366455,-68.90916442871094
1680891135351775200,9.828775146484375,-0.5691205263137817,-4.886689186096191,-43.517967224121094
1680891135361813500,9.8388134765625,-3.7323763370513916,-3.283668041229248,-22.81488800048828
1680891135371852000,9.84885205078125,-5.830543518066406,-1.4196641445159912,-12.535469055175781
1680891135381890600,9.858890625,-7.360282897949219,-0.3353450298309326,-6.243444442749023
1680891135391929000,9.86892919921875,-7.604855537414551,0.7772629261016846,-2.1507797241210938
1680891135401967600,9.878967529296874,-5.982351303100586,1.6694772243499756,0.33690357208251953
1680891135412006100,9.889006103515625,-3.119154453277588,1.462813138961792,1.637202262878418
1680891135422044700,9.899044677734375,-0.7220535278320312,1.0571473836898804,1.8345527648925781
1680891135432083000,9.9090830078125,0.9891157150268555,0.6219009757041931,1.7070140838623047
1680891135442121500,9.91912158203125,1.802411437034607,0.2972274720668793,2.0218377113342285
1680891135452160000,9.929159912109375,2.104992151260376,0.2975602149963379,2.8206653594970703
1680891135462198500,9.939198486328126,2.355435848236084,0.3947673738002777,4.065280914306641
1680891135472237000,9.949237060546874,2.445068836212158,0.2566351592540741,5.285131931304932
1680891135482275600,9.959275634765625,2.869990825653076,0.07755094766616821,6.2250847816467285
1680891135492313900,9.96931396484375,3.091204881668091,-0.2669607996940613,7.2193989753723145
1680891135502352400,9.979352294921876,3.1559317111968994,-0.7665356993675232,8.013900756835938
1680891135512391000,9.989390869140625,3.073861598968506,-1.417673110961914,8.126158714294434
1680891135522429400,9.999429443359375,2.774157762527466,-2.1502513885498047,7.215807914733887
1680891135532468000,10.009468017578126,2.203533172607422,-2.72969126701355,6.268604755401611
1680891135542506500,10.019506591796874,1.9276273250579834,-3.112441062927246,6.592268943786621
1680891135552544800,10.029544677734375,1.920121431350708,-3.277536392211914,7.512035369873047
1680891135562583300,10.039583251953125,1.438086986541748,-3.0343379974365234,7.978888988494873
1680891135572621800,10.049621826171874,0.7212247252464294,-2.6312224864959717,8.126781463623047
1680891135582660400,10.059660400390625,-0.02313530445098877,-2.1350607872009277,8.425745964050293
1680891135592699000,10.069698974609375,-1.5614840984344482,-1.4806333780288696,8.668590545654297
1680891135602737400,10.0797373046875,-3.1117682456970215,-1.0466355085372925,5.873746871948242
1680891135612775700,10.089775634765624,-4.031120777130127,-0.6252136826515198,2.687269687652588
1680891135622814200,10.099814208984375,-5.6779985427856445,-0.3965536952018738,0.1363840103149414
1680891135632852700,10.109852783203126,-6.69684362411499,-0.1242070198059082,-2.3926734924316406
1680891135642891300,10.119891357421874,-5.399427890777588,0.28625959157943726,-4.7294416427612305
1680891135652929800,10.1299296875,-2.2672829627990723,0.6737490296363831,-7.425905227661133
1680891135662968300,10.13996826171875,0.8355312943458557,1.0129886865615845,-10.59115982055664
1680891135673006800,10.1500068359375,2.7886788845062256,1.532512903213501,-13.847070693969727
1680891135683045000,10.160045166015625,2.696779489517212,3.047163486480713,-14.256203651428223
1680891135693083600,10.170083740234375,1.3092586994171143,3.2445719242095947,-8.735724449157715
1680891135703122200,10.1801220703125,0.9768949747085571,2.2541346549987793,-3.2970142364501953
1680891135713160700,10.19016064453125,0.9879375696182251,0.638761579990387,-0.26823902130126953
1680891135723199200,10.20019921875,1.3147906064987183,-0.5634483098983765,1.5827484130859375
1680891135733237800,10.21023779296875,1.9497069120407104,-1.3751176595687866,3.4158267974853516
1680891135743276300,10.2202763671875,2.6517210006713867,-1.881868839263916,5.501904487609863
1680891135753314600,10.230314453125,2.8140571117401123,-2.08380126953125,7.1005964279174805
1680891135763353000,10.24035302734375,2.2131834030151367,-2.214776039123535,8.09107780456543
1680891135773391600,10.2503916015625,0.6691148281097412,-2.3476786613464355,8.190664291381836
1680891135783430100,10.26043017578125,-0.8771510720252991,-2.6619391441345215,5.589609146118164
1680891135793468700,10.27046875,-1.8899600505828857,-2.6168487071990967,2.753239154815674
1680891135803507200,10.280507080078126,-2.0700607299804688,-2.4364771842956543,1.2621841430664062
1680891135813545700,10.290545654296874,-1.6858267784118652,-2.130922794342041,0.9600706100463867
1680891135823584300,10.300584228515625,-1.013979196548462,-1.7764524221420288,1.4048833847045898
1680891135833622500,10.31062255859375,-0.498191773891449,-1.5676321983337402,2.000286102294922
1680891135843661000,10.3206611328125,-0.3004114031791687,-1.3930476903915405,2.4788818359375
1680891135853699600,10.330699462890625,-0.6187976002693176,-1.3084371089935303,2.829348564147949
1680891135863738000,10.340738037109375,-1.2011226415634155,-0.8377130627632141,1.058854103088379
1680891135873776600,10.350776611328126,-2.200775623321533,-0.7249213457107544,-1.2103757858276367
1680891135883815200,10.360815185546874,-3.190119743347168,-0.3347257971763611,-2.345149040222168
1680891135893853400,10.370853515625,-3.310776710510254,0.05173361301422119,-3.6373777389526367
1680891135903892000,10.38089208984375,-2.5590739250183105,0.2850263714790344,-4.0688066482543945
1680891135913930500,10.390930419921874,-1.2281550168991089,0.45204752683639526,-3.0240535736083984
1680891135923969000,10.400968994140625,-0.0376284122467041,0.497367262840271,-1.722304344177246
1680891135934007600,10.411007568359375,0.9233132004737854,0.4185357689857483,-0.3153676986694336
1680891135944046000,10.421046142578126,1.8358763456344604,0.3749812841415405,1.3020086288452148
1680891135954084600,10.431084716796875,2.6062233448028564,0.3638344407081604,2.789271831512451
1680891135964123100,10.441123046875,2.9832091331481934,0.2510542869567871,3.8693180084228516
1680891135974161400,10.451161376953126,3.320692300796509,0.08911967277526855,4.842390537261963
1680891135984200000,10.461199951171874,3.484874725341797,-0.02405601739883423,5.621390342712402
1680891135994238500,10.471238525390625,3.489466667175293,-0.15025454759597778,6.358066558837891
1680891136004277000,10.481277099609375,2.980466842651367,-0.5487834811210632,6.923783302307129
1680891136014315500,10.4913154296875,2.0590124130249023,-1.3282415866851807,7.277179718017578
1680891136024354000,10.50135400390625,0.34610438346862793,-1.8872904777526855,6.949891090393066
1680891136034392600,10.511392578125,-2.285019636154175,-2.6025261878967285,6.71274471282959
1680891136044430800,10.521430908203126,-4.772378921508789,-3.4004454612731934,6.294837951660156
1680891136054469400,10.531469482421874,-5.4812774658203125,-3.9981844425201416,5.729495048522949
1680891136064508000,10.5415078125,-3.7436728477478027,-3.6955716609954834,5.274709701538086
1680891136074546400,10.55154638671875,-0.14097285270690918,-1.8894948959350586,6.232673645019531
1680891136084585000,10.5615849609375,1.5890470743179321,0.001523137092590332,5.677302837371826
1680891136094623500,10.57162353515625,2.2654917240142822,0.8117252588272095,4.840814590454102
1680891136104662000,10.581662109375,2.7268896102905273,1.1791388988494873,3.7984204292297363
1680891136114700500,10.591700439453126,2.7631003856658936,1.7140568494796753,1.3107004165649414
1680891136124738800,10.60173876953125,1.2740416526794434,1.7302104234695435,-3.185479164123535
1680891136134777300,10.61177734375,-2.8126890659332275,0.9108386039733887,-9.874002456665039
1680891136144815900,10.62181591796875,-1.9774370193481445,1.9218740463256836,-15.737202644348145
1680891136154854400,10.6318544921875,1.1061630249023438,2.3313677310943604,-18.656278610229492
1680891136164893000,10.641892822265625,2.0110692977905273,2.069899320602417,-23.07427978515625
1680891136174931500,10.651931396484375,0.40181803703308105,0.8355923891067505,-28.180641174316406
1680891136184970000,10.661969970703124,-2.606579303741455,-1.502295970916748,-32.08906173706055
1680891136195008500,10.672008544921875,-2.627662181854248,-3.7463314533233643,-31.896883010864258
1680891136205046800,10.682046875,-3.603738784790039,-4.619025707244873,-25.104272842407227
1680891136215085300,10.692085205078126,-5.876557350158691,-4.490936279296875,-18.302536010742188
1680891136225123800,10.702123779296874,-7.87220573425293,-3.3794212341308594,-15.599017143249512
1680891136235162400,10.712162353515625,-8.39161491394043,-2.265094518661499,-16.008760452270508
1680891136245201000,10.722200927734375,-7.689240455627441,-1.318282961845398,-16.50497817993164
1680891136255239400,10.732239501953124,-6.254312992095947,-0.6583800315856934,-15.930645942687988
1680891136265278000,10.74227783203125,-3.716413974761963,0.1212136447429657,-14.654014587402344
1680891136275316500,10.75231640625,-3.6636762619018555,1.0044890642166138,-12.099806785583496
1680891136285354800,10.762354736328126,-3.552549362182617,0.7126145958900452,-9.089801788330078
1680891136295393300,10.772393310546875,-2.093320846557617,-0.8284127712249756,-5.050457954406738
1680891136305431800,10.782431884765625,0.8557460904121399,-2.1137843132019043,-0.7098102569580078
1680891136315470300,10.79247021484375,3.7965927124023438,-2.867701530456543,2.2640953063964844
1680891136325508900,10.8025087890625,6.843144416809082,-1.827462911605835,2.574738025665283
1680891136335547400,10.81254736328125,5.639467716217041,-1.2523832321166992,4.016472339630127
1680891136345586000,10.8225859375,4.1252031326293945,-3.5073800086975098,7.3512678146362305
1680891136355624400,10.83262451171875,4.297869682312012,-4.151364326477051,9.664185523986816
1680891136365662700,10.842662841796875,3.0912764072418213,-4.550293922424316,9.949152946472168
1680891136375701200,10.852701171875,1.1257963180541992,-4.0744452476501465,7.372376918792725
1680891136385739800,10.86273974609375,-0.07767415046691895,-3.68165922164917,7.440798759460449
1680891136395778300,10.8727783203125,-0.4578554630279541,-3.1493725776672363,9.016377449035645
1680891136405816800,10.88281689453125,-0.7494838833808899,-2.5865464210510254,10.971174240112305
1680891136415855400,10.89285546875,-1.748906135559082,-2.32003116607666,12.640610694885254
1680891136425894000,10.902893798828124,-4.702086448669434,-1.9108715057373047,13.636436462402344
1680891136435932400,10.912932373046875,-5.274523735046387,-1.0486078262329102,13.496004104614258
1680891136445970700,10.922970703125,-3.4964497089385986,-0.3982570171356201,12.534607887268066
1680891136456009500,10.933009521484376,-1.4998509883880615,-0.11535263061523438,12.018686294555664
1680891136466047700,10.9430478515625,0.03828418254852295,-0.11254632472991943,11.97317886352539
1680891136476086300,10.953086181640625,1.1827342510223389,-0.3417062759399414,11.939248085021973
1680891136486124800,10.963124755859376,2.3360183238983154,-0.661794126033783,11.930274963378906
1680891136496163300,10.973163330078124,3.0218992233276367,-1.0812996625900269,11.687602996826172
1680891136506201900,10.983201904296875,3.528373956680298,-1.3756816387176514,11.41819953918457
1680891136516240400,10.993240478515625,3.8200316429138184,-1.5685346126556396,11.214738845825195
1680891136526279000,11.00327880859375,4.034929275512695,-1.8841220140457153,11.142539024353027
1680891136536317400,11.0133173828125,4.22442626953125,-2.321925640106201,11.377989768981934
1680891136546355700,11.023355712890625,4.306027412414551,-2.6430344581604004,11.644765853881836
1680891136556394200,11.033394287109376,4.031368732452393,-2.9484758377075195,11.739923477172852
1680891136566432800,11.043432861328125,3.607524871826172,-3.213487148284912,11.553422927856445
1680891136576471300,11.05347119140625,3.0091371536254883,-3.2649359703063965,10.932937622070312
1680891136586509800,11.063509765625,2.4800949096679688,-3.1525068283081055,10.034506797790527
1680891136596548400,11.07354833984375,2.126065731048584,-2.932133197784424,9.525456428527832
1680891136606587000,11.0835869140625,1.8310813903808594,-2.706735134124756,9.258208274841309
1680891136616625400,11.09362548828125,1.5729838609695435,-2.583995819091797,9.109763145446777
1680891136626664000,11.103663818359376,1.3975746631622314,-2.4889883995056152,8.971980094909668
1680891136636702200,11.1137021484375,1.3626919984817505,-2.39274263381958,8.952503204345703
1680891136646740700,11.12374072265625,1.3812224864959717,-2.327558994293213,8.86060619354248
1680891136656779300,11.133779296875,1.4396926164627075,-2.304142951965332,8.775611877441406
1680891136666817800,11.14381787109375,1.5371650457382202,-2.284942626953125,8.652497291564941
1680891136676856300,11.153856201171875,1.6267237663269043,-2.2660608291625977,8.510957717895508
1680891136686894800,11.163894775390625,1.763124942779541,-2.2462542057037354,8.341730117797852
1680891136696933400,11.173933349609374,1.7484160661697388,-2.2742903232574463,8.199122428894043
1680891136706972000,11.183971923828125,-0.58782958984375,-2.8497543334960938,7.218442916870117
1680891136717010400,11.194010498046875,-7.8849968910217285,-3.3233799934387207,2.9998984336853027
1680891136727048700,11.204048583984376,-7.455364227294922,-1.821678876876831,3.7270593643188477
1680891136737087200,11.214087158203125,-7.135380744934082,-0.26788949966430664,3.5733370780944824
1680891136747125800,11.224125732421875,-3.072521924972534,1.0827313661575317,4.669401168823242
1680891136757164300,11.234164306640626,0.5028871297836304,1.3382210731506348,7.0604753494262695
1680891136767202800,11.244202880859374,1.7373563051223755,1.2255851030349731,7.502545356750488
1680891136777241300,11.254241455078125,3.3602662086486816,1.2982257604599,1.1883692741394043
1680891136787280000,11.26427978515625,3.495124340057373,0.9582657814025879,-24.236576080322266
1680891136797318400,11.274318359375,5.638260364532471,-1.3734277486801147,-66.94477844238281
1680891136807357000,11.28435693359375,1.8741941452026367,-6.012763500213623,-69.09136962890625
1680891136817395500,11.2943955078125,-3.2557120323181152,-6.967850685119629,-67.55516815185547
1680891136827433700,11.304433837890626,-8.461466789245605,-1.6417019367218018,-34.045127868652344
1680891136837472300,11.31447216796875,-7.483604431152344,0.9307175278663635,-15.036660194396973
1680891136847510800,11.3245107421875,-6.505465030670166,2.0865964889526367,-4.990706443786621
1680891136857549300,11.33454931640625,-6.173645973205566,2.5982112884521484,-0.1676492691040039
1680891136867587800,11.344587890625,-4.369635105133057,2.166703701019287,3.181455135345459
1680891136877626400,11.35462646484375,-2.3351821899414062,1.705233097076416,4.1432318687438965
1680891136887665000,11.364664794921875,-0.2162719964981079,1.320530891418457,4.135476589202881
1680891136897703400,11.374703369140626,1.6317050457000732,0.8115633726119995,4.348011016845703
1680891136907742000,11.384741943359375,2.9739794731140137,0.5908410549163818,5.097813129425049
1680891136917780500,11.394780517578125,2.764629602432251,0.5375188589096069,5.281374454498291
1680891136927818800,11.40481884765625,2.1280934810638428,0.6235687136650085,4.513278961181641
1680891136937857300,11.414857177734374,1.9479621648788452,0.3874630928039551,4.532890319824219
1680891136947895800,11.424895751953125,1.6741973161697388,0.009687132202088833,5.073558330535889
1680891136957934300,11.434934326171875,1.7065497636795044,-0.1698150783777237,5.226258277893066
1680891136967972900,11.444972900390624,2.1737546920776367,0.13497485220432281,5.274432182312012
1680891136978011400,11.455011474609375,2.4278273582458496,-0.21142974495887756,6.142205238342285
1680891136988050000,11.4650498046875,2.5600900650024414,-0.7930561304092407,6.973453998565674
1680891136998088400,11.47508837890625,2.6153600215911865,-1.083516240119934,7.392223834991455
1680891137008127000,11.485126953125,2.5958313941955566,-1.0091862678527832,7.54789400100708
1680891137018165500,11.49516552734375,2.3701705932617188,-0.8975028395652771,7.6850972175598145
1680891137028204000,11.5052041015625,1.933257818222046,-0.8319581747055054,8.142129898071289
1680891137038242300,11.5152421875,1.4023159742355347,-0.7689969539642334,8.6049222946167
1680891137048280800,11.52528076171875,0.6421292424201965,-0.4643857181072235,8.862346649169922
1680891137058319400,11.5353193359375,-0.4743828773498535,0.35905522108078003,8.786115646362305
1680891137068358000,11.54535791015625,-1.557898998260498,0.8260941505432129,7.559410095214844
1680891137078396400,11.555396484375,-2.022918939590454,0.4771856367588043,5.742309093475342
1680891137088435000,11.56543505859375,-1.5202425718307495,-0.011954441666603088,4.031245231628418
1680891137098473500,11.575473388671876,-0.6859023571014404,-0.4648398756980896,2.6491990089416504
1680891137108512000,11.585511962890624,-0.020032525062561035,-0.6987566947937012,1.140000343322754
1680891137118550500,11.595550537109375,0.568300724029541,-0.8249813914299011,-0.4854001998901367
1680891137128589000,11.605589111328126,1.1295220851898193,-0.9139012098312378,-2.435800552368164
1680891137138627600,11.615627685546874,1.710639476776123,-0.9214423894882202,-4.844626426696777
1680891137148665900,11.625665771484375,2.3645803928375244,-0.9850342273712158,-7.798487663269043
1680891137158704400,11.635704345703125,3.0436887741088867,-1.091577410697937,-11.296735763549805
1680891137168743000,11.645742919921876,2.764587163925171,-1.1381521224975586,-14.740599632263184
1680891137178781400,11.655781494140625,0.6596202254295349,-1.1834625005722046,-15.937386512756348
1680891137188820000,11.665820068359375,-2.257171630859375,-1.1958357095718384,-10.440958023071289
1680891137198858500,11.6758583984375,-3.971695899963379,-0.9137630462646484,-5.27805233001709
1680891137208897000,11.68589697265625,-4.003869533538818,-0.5847777128219604,-2.5931005477905273
1680891137218935600,11.695935546875,-2.9008774757385254,-0.25473079085350037,-0.6407566070556641
1680891137228974000,11.70597412109375,-1.3916068077087402,0.09961989521980286,0.8351774215698242
1680891137239012600,11.7160126953125,0.03147369623184204,0.4062722623348236,2.5501770973205566
1680891137249051100,11.726051025390625,1.4360907077789307,0.6783201098442078,4.317389965057373
1680891137259089700,11.736089599609375,2.687422037124634,1.1244927644729614,5.5413360595703125
1680891137269128000,11.7461279296875,2.954286575317383,1.4399094581604004,5.772662162780762
1680891137279166500,11.75616650390625,2.8404624462127686,1.4309147596359253,5.629073143005371
1680891137289205000,11.766205078125,2.331115245819092,1.6984823942184448,4.395106792449951
1680891137299243500,11.776243408203126,1.3537300825119019,1.834850549697876,3.0005412101745605
1680891137309282000,11.786281982421874,-0.12730829417705536,0.8139689564704895,1.6279973983764648
1680891137319320600,11.796320556640625,-1.850662350654602,-0.3622889518737793,0.8892545700073242
1680891137329359000,11.806359130859375,-2.7773749828338623,-1.2566983699798584,0.4820518493652344
1680891137339397600,11.816397705078124,-2.5910158157348633,-1.6132906675338745,0.3006258010864258
1680891137349436200,11.826436279296875,-1.6846752166748047,-1.5802541971206665,0.17249679565429688
1680891137359474700,11.836474609375,-0.6277762651443481,-1.2928543090820312,-0.22026348114013672
1680891137369513200,11.84651318359375,0.28829532861709595,-1.007542371749878,-0.9417953491210938
1680891137379551700,11.8565517578125,0.8697611093521118,-0.7057074904441833,-1.6618967056274414
1680891137389590300,11.86659033203125,1.016062617301941,-0.40015146136283875,-2.2467947006225586
1680891137399628500,11.876628662109376,0.7275668382644653,-0.12068378925323486,-2.5175256729125977
1680891137409667000,11.8866669921875,0.012710273265838623,0.22328758239746094,-2.4366626739501953
1680891137419705600,11.89670556640625,-0.7616637945175171,0.5416582226753235,-2.0174474716186523
1680891137429744000,11.906744140625,-1.044278860092163,0.7520927786827087,-1.1778345108032227
1680891137439782700,11.91678271484375,-0.7514480948448181,0.6959835290908813,-0.29446887969970703
1680891137449821200,11.9268212890625,-0.4064635634422302,0.47408342361450195,0.4649791717529297
1680891137459859700,11.936859619140625,-0.13824212551116943,0.23220700025558472,1.1581707000732422
1680891137469898200,11.946898193359376,0.09154289960861206,0.011582791805267334,1.7473959922790527
1680891137479936800,11.956936767578124,0.35692721605300903,-0.09426501393318176,2.360189914703369
1680891137489975300,11.966975341796875,0.5063592791557312,-0.1959860920906067,2.861232280731201
1680891137500013800,11.977013916015625,0.5769729018211365,-0.2823507487773895,3.370720863342285
1680891137510052400,11.98705224609375,0.6163591742515564,-0.318740576505661,3.8241753578186035
1680891137520091000,11.9970908203125,0.6756296753883362,-0.3888244926929474,4.412209987640381
1680891137530129400,12.00712939453125,0.7587766051292419,-0.47869887948036194,4.956158638000488
1680891137540168000,12.01716796875,0.7446374297142029,-0.63941890001297,5.511056900024414
1680891137550206200,12.027206298828125,0.6365149021148682,-0.9603332281112671,6.019856929779053
1680891137560244700,12.03724462890625,0.35149693489074707,-1.382967233657837,6.4138898849487305
1680891137570283300,12.047283203125,-0.9123592376708984,-1.9839890003204346,6.274590492248535
1680891137580321800,12.05732177734375,-2.9391274452209473,-2.8627569675445557,5.879332065582275
1680891137590360300,12.0673603515625,-4.867766857147217,-3.668306350708008,5.04155969619751
1680891137600398800,12.07739892578125,-5.199183464050293,-4.3510966300964355,4.053062915802002
1680891137610437400,12.087437255859374,-2.340501308441162,-2.9562296867370605,3.2740378379821777
1680891137620476000,12.097475830078125,1.3912099599838257,-1.1343574523925781,3.9331846237182617
1680891137630514400,12.107514404296875,3.7472996711730957,-0.12536150217056274,3.8203372955322266
1680891137640553000,12.117552978515626,4.492084503173828,0.602125346660614,4.028489112854004
1680891137650591500,12.127591552734375,3.8719229698181152,0.6795870065689087,4.240354537963867
1680891137660630000,12.137630126953125,3.0418100357055664,0.15650206804275513,3.8593955039978027
1680891137670668500,12.14766845703125,2.2143726348876953,-0.6293191909790039,2.409785270690918
1680891137680707000,12.15770703125,-0.2055673599243164,-1.5796895027160645,0.06471633911132812
1680891137690745600,12.16774560546875,-3.5125136375427246,-1.2986124753952026,-2.2338151931762695
1680891137700783900,12.177783935546875,-4.34429407119751,-1.128825306892395,-4.9199113845825195
1680891137710822400,12.187822509765626,-2.57074236869812,-0.7522432804107666,-10.082880973815918
1680891137720861000,12.19786083984375,0.22639703750610352,-0.3203214406967163,-17.313241958618164
1680891137730899500,12.2078994140625,1.465927004814148,-2.0977978706359863,-27.69861602783203
1680891137740938000,12.21793798828125,-1.0587382316589355,-5.375502586364746,-36.28504180908203
1680891137750976500,12.2279765625,-1.6604509353637695,-7.304681777954102,-36.387088775634766
1680891137761015000,12.23801513671875,-3.179015636444092,-5.775118827819824,-27.22471046447754
1680891137771053600,12.248053466796875,-6.072134971618652,-3.566202163696289,-20.806320190429688
1680891137781092000,12.258092041015624,-8.442022323608398,-2.204805850982666,-17.736495971679688
1680891137791130600,12.268130615234375,-9.701000213623047,-1.266627550125122,-16.042922973632812
1680891137801169200,12.278169189453125,-9.375274658203125,-0.6602500677108765,-15.678114891052246
1680891137811207700,12.288207763671876,-7.827447891235352,-0.6752167344093323,-16.10662078857422
1680891137821246200,12.29824609375,-5.772701263427734,-0.22459101676940918,-16.082294464111328
1680891137831284700,12.30828466796875,-4.1396942138671875,0.05653032660484314,-14.4681396484375
1680891137841323300,12.3183232421875,-3.076632261276245,-0.2259436845779419,-12.620859146118164
1680891137851361800,12.32836181640625,-2.0900657176971436,-1.524914026260376,-10.142877578735352
1680891137861400300,12.338400390625,0.3048255443572998,-2.685230255126953,-6.383893966674805
1680891137871438800,12.34843896484375,2.66164493560791,-3.4435555934906006,-1.7822742462158203
1680891137881477400,12.358477294921874,5.4128217697143555,-2.7552032470703125,2.251070499420166
1680891137891515600,12.368515625,7.063120365142822,-0.3545386791229248,3.1922755241394043
1680891137901554200,12.37855419921875,3.0997581481933594,-1.5091303586959839,2.9748616218566895
1680891137911592700,12.3885927734375,1.0416697263717651,-2.7538340091705322,3.115251064300537
1680891137921631200,12.39863134765625,1.0902410745620728,-3.4120171070098877,4.590814113616943
1680891137931669800,12.408669677734375,0.8705623149871826,-3.4129981994628906,6.477176666259766
1680891137941708300,12.418708251953126,0.49062609672546387,-3.116335153579712,8.764041900634766
1680891137951746800,12.428746826171874,0.8810579180717468,-2.559379816055298,10.968607902526855
1680891137961785300,12.438785400390625,1.0626375675201416,-1.8768857717514038,12.816118240356445
1680891137971823900,12.448823974609375,0.12376353144645691,-1.0113475322723389,13.274837493896484
1680891137981862400,12.4588623046875,-0.9133870601654053,-0.284795343875885,12.515508651733398
1680891137991901000,12.46890087890625,-2.2888848781585693,0.20657962560653687,12.467534065246582
1680891138001939500,12.478939453125,-2.0136868953704834,0.6702909469604492,12.81988525390625
1680891138011978000,12.48897802734375,-1.5041323900222778,1.222092866897583,12.227828979492188
1680891138022016500,12.4990166015625,-0.33735358715057373,1.68844735622406,12.67688274383545
1680891138032055000,12.509054931640625,1.2521225214004517,2.419307231903076,12.85129165649414
1680891138042093600,12.519093505859376,3.012335777282715,2.7447941303253174,12.224061965942383
1680891138052132000,12.529132080078124,4.925159454345703,2.3284149169921875,12.005128860473633
1680891138062170400,12.53917041015625,5.898705959320068,0.8465948104858398,12.022470474243164
1680891138072209200,12.549209228515625,6.271627426147461,-0.45226573944091797,11.997191429138184
1680891138082247700,12.55924755859375,6.392446041107178,-1.4434247016906738,12.536511421203613
1680891138092286000,12.569285888671875,5.769303321838379,-2.2416412830352783,12.969560623168945
1680891138102324500,12.579324462890625,4.549377918243408,-2.699075222015381,12.816999435424805
1680891138112363000,12.589363037109376,3.435904026031494,-2.938591957092285,12.433859825134277
1680891138122401500,12.599401611328124,2.472426414489746,-3.1659774780273438,11.985856056213379
1680891138132440000,12.609440185546875,1.6952190399169922,-3.353872776031494,11.555299758911133
1680891138142478600,12.619478515625,1.1004998683929443,-3.5535502433776855,11.26871395111084
1680891138152517000,12.62951708984375,0.6893273591995239,-3.679434299468994,10.921615600585938
1680891138162555600,12.6395556640625,0.4606970548629761,-3.647650718688965,10.805337905883789
1680891138172594200,12.64959423828125,0.29128098487854004,-3.5776724815368652,10.641946792602539
1680891138182632700,12.6596328125,0.27427804470062256,-3.679412364959717,10.33000659942627
1680891138192671200,12.669671142578125,0.33867084980010986,-3.8403167724609375,9.91625690460205
1680891138202709800,12.679709716796875,0.38027095794677734,-3.934882164001465,9.473726272583008
1680891138212748300,12.689748291015626,0.46094775199890137,-4.008877277374268,9.029359817504883
1680891138222786800,12.699786865234374,0.5041137933731079,-4.023593902587891,8.857548713684082
1680891138232825300,12.709825439453125,0.470361590385437,-4.01663875579834,8.692941665649414
1680891138242863900,12.71986376953125,-0.44146430492401123,-4.221590042114258,8.339864730834961
1680891138252902400,12.72990234375,-1.4424320459365845,-4.298191070556641,7.81874418258667
1680891138262941000,12.73994091796875,-1.4992213249206543,-3.9640440940856934,7.280165672302246
1680891138272979500,12.7499794921875,-0.9576883316040039,-3.439915418624878,6.889657974243164
1680891138283018000,12.76001806640625,0.5392096042633057,-3.152019739151001,6.700024604797363
1680891138293056500,12.770056396484375,0.5367121696472168,-2.884523630142212,5.9506072998046875
1680891138303095000,12.780094970703125,-0.8105969429016113,-2.340407371520996,4.732566833496094
