time,seconds_elapsed,z,y,x
1680996925704635400,0.037635498046875,0,0,0
1680996925714676000,0.047676025390625,-0.0793008804321289,-0.0225830078125,0.014509022235870361
1680996925724716500,0.057716552734375,-0.29212474822998047,-0.05525851249694824,-0.1696992814540863
1680996925734757000,0.067757080078125,-0.571934700012207,0.04910111427307129,-0.45922842621803284
1680996925744797700,0.077797607421875,-1.140080451965332,0.013608217239379883,-0.5312358140945435
1680996925754838300,0.08783837890625,-1.4778571128845215,0.03970932960510254,-0.5726136565208435
1680996925764878800,0.09787890625,-1.2784113883972168,-0.14651131629943848,-0.3005380928516388
1680996925774919400,0.10791943359375,-1.6748266220092773,-1.1063156127929688,-0.8961813449859619
1680996925784960000,0.1179599609375,-1.306673526763916,-1.3768020868301392,-1.3746870756149292
1680996925795000600,0.12800048828125,-0.33550119400024414,-0.0987856388092041,-1.4868073463439941
1680996925805041200,0.138041259765625,-0.17917346954345703,0.6634950637817383,-1.552649974822998
1680996925815081700,0.148081787109375,-0.7293634414672852,-1.477310061454773,-1.9499566555023193
1680996925825122300,0.158122314453125,-0.8846654891967773,-0.6953616142272949,-2.945180892944336
1680996925835163000,0.168162841796875,-0.8277769088745117,-0.34525132179260254,-2.666475772857666
1680996925845203500,0.178203369140625,-0.7550935745239258,0.31541013717651367,-2.863581657409668
1680996925855244000,0.188244140625,-0.5053725242614746,0.5610392093658447,-2.601400375366211
1680996925865284600,0.19828466796875,-0.5066523551940918,0.4478890895843506,-1.9089620113372803
1680996925875325200,0.2083251953125,-0.2210526466369629,0.3551597595214844,-1.3090828657150269
1680996925885365800,0.21836572265625,0.21934223175048828,0.41531801223754883,-1.0716699361801147
1680996925895406300,0.22840625,0.39554929733276367,-0.08306145668029785,0.02880653738975525
1680996925905447000,0.238447021484375,1.773733139038086,-0.9858479499816895,1.1140856742858887
1680996925915487500,0.248487548828125,2.8809022903442383,-1.1944859027862549,1.5641510486602783
1680996925925528000,0.258528076171875,4.390138626098633,-0.8317151069641113,1.4763658046722412
1680996925935568600,0.268568603515625,6.521551609039307,0.5889599323272705,1.4376184940338135
1680996925945609200,0.278609130859375,9.486946105957031,1.4890046119689941,1.786445140838623
1680996925955649800,0.28864990234375,12.881454467773438,0.557610273361206,3.0355865955352783
1680996925965690400,0.2986904296875,14.67261028289795,-1.1343810558319092,5.1418890953063965
1680996925975731000,0.30873095703125,15.549443244934082,-2.3789758682250977,6.40606689453125
1680996925985771500,0.318771484375,14.230307579040527,-3.603905439376831,7.002930641174316
1680996925995811800,0.328811767578125,12.470819473266602,-5.6025896072387695,7.602123260498047
1680996926005852400,0.338852294921875,10.117270469665527,-5.645572662353516,7.008763313293457
1680996926015893000,0.34889306640625,8.063902854919434,-5.037539482116699,5.593395233154297
1680996926025933600,0.35893359375,5.675851821899414,-4.409144878387451,4.7079877853393555
1680996926035974100,0.36897412109375,2.855030059814453,-4.02431058883667,4.044068336486816
1680996926046014700,0.3790146484375,0.025185585021972656,-3.4954237937927246,3.671555995941162
1680996926056055300,0.38905517578125,-2.638962745666504,-2.06101131439209,1.6443679332733154
1680996926066095900,0.399095947265625,-4.985506534576416,-1.7323293685913086,1.852351427078247
1680996926076136400,0.409136474609375,-5.702996253967285,-2.1732871532440186,1.7702093124389648
1680996926086177000,0.419177001953125,-5.80019474029541,-1.8176617622375488,1.6413558721542358
1680996926096217600,0.429217529296875,-5.543809413909912,-2.511631488800049,1.630310297012329
1680996926106258200,0.439258056640625,-4.479979991912842,-2.516385078430176,1.7090100049972534
1680996926116298800,0.449298828125,-3.759303092956543,-1.9034173488616943,1.5943562984466553
1680996926126339600,0.459339599609375,-3.796288013458252,-1.8631856441497803,1.6249122619628906
1680996926136380000,0.4693798828125,-4.140227794647217,-1.832359790802002,1.7261464595794678
1680996926146420500,0.47942041015625,-4.2516374588012695,-0.8645398020744324,2.4707748889923096
1680996926156461300,0.48946142578125,-4.762221813201904,-0.15577948093414307,2.9534900188446045
1680996926166501600,0.499501708984375,-5.531270980834961,0.026330292224884033,2.7825331687927246
1680996926176542200,0.509542236328125,-5.696242332458496,0.8689584732055664,2.5480804443359375
1680996926186582800,0.519582763671875,-5.964188098907471,1.1058465242385864,2.0011239051818848
1680996926196623400,0.529623291015625,-5.977917671203613,1.1071933507919312,1.3443962335586548
1680996926206664000,0.539663818359375,-5.642503261566162,0.8243519067764282,1.2805590629577637
1680996926216704500,0.54970458984375,-5.2192301750183105,0.44612836837768555,1.8885178565979004
1680996926226745000,0.5597451171875,-4.88014554977417,-0.11453714966773987,2.7163643836975098
1680996926236785700,0.56978564453125,-4.466033935546875,-0.7305450439453125,2.7837255001068115
1680996926246826200,0.579826171875,-3.755547046661377,-0.7278101444244385,2.0754854679107666
1680996926256866800,0.58986669921875,-4.227623462677002,0.08136530965566635,1.6675153970718384
1680996926266907400,0.599907470703125,-3.809988498687744,0.41313445568084717,0.768817126750946
1680996926276948000,0.609947998046875,-2.5337271690368652,0.44089457392692566,1.4860882759094238
1680996926286988500,0.619988525390625,-1.4228038787841797,-0.504718005657196,3.621480941772461
1680996926297029000,0.630029052734375,1.128209114074707,-1.4434387683868408,6.421292304992676
1680996926307069700,0.640069580078125,4.032938003540039,-2.521768569946289,8.106389999389648
1680996926317110300,0.6501103515625,6.777778625488281,-3.785318613052368,7.809298038482666
1680996926327150800,0.66015087890625,9.432660102844238,-4.814760684967041,5.574002742767334
1680996926337191400,0.67019140625,11.86348819732666,-5.805809497833252,3.984677791595459
1680996926347232000,0.68023193359375,13.212237358093262,-6.499685764312744,2.9963784217834473
1680996926357272600,0.6902724609375,13.34327220916748,-6.357963562011719,2.2225704193115234
1680996926367313200,0.700313232421875,13.316570281982422,-5.829709529876709,1.3984490633010864
1680996926377353700,0.710353759765625,13.744266510009766,-5.342833042144775,0.9663037061691284
1680996926387394300,0.720394287109375,13.487083435058594,-4.280145168304443,-0.37607014179229736
1680996926397435000,0.730434814453125,11.770613670349121,-3.279221773147583,-1.8230329751968384
1680996926407475500,0.740475341796875,8.98342227935791,-2.326467990875244,-3.2386555671691895
1680996926417516000,0.75051611328125,5.740810394287109,-1.4745837450027466,-3.7750232219696045
1680996926427556600,0.760556640625,2.1986923217773438,-0.1940096616744995,-4.161797046661377
1680996926437597200,0.77059716796875,-0.8858051300048828,1.2498948574066162,-3.824903726577759
1680996926447637800,0.7806376953125,-3.199460029602051,2.4481863975524902,-3.7067339420318604
1680996926457678300,0.79067822265625,-4.981380939483643,3.346920967102051,-2.890796184539795
1680996926467719000,0.800718994140625,-6.481664657592773,4.385915756225586,-2.4729490280151367
1680996926477759500,0.810759521484375,-7.7728424072265625,5.414333343505859,-2.210794448852539
1680996926487800000,0.820800048828125,-8.43918514251709,5.818598747253418,-2.3135783672332764
1680996926497840600,0.830840576171875,-8.425771713256836,5.715212345123291,-2.772455930709839
1680996926507881200,0.840881103515625,-7.920390605926514,5.194313049316406,-3.4192352294921875
1680996926517921800,0.850921875,-6.844301223754883,4.329501152038574,-4.713268280029297
1680996926527962400,0.86096240234375,-5.675947189331055,3.2911906242370605,-6.408926010131836
1680996926538003000,0.8710029296875,-4.657593727111816,2.3204145431518555,-7.423617362976074
1680996926548043500,0.88104345703125,-3.2549567222595215,1.4271509647369385,-8.254819869995117
1680996926558084000,0.891083984375,-2.7272119522094727,1.0429753065109253,-8.53840160369873
1680996926568124700,0.901124755859375,-4.495747089385986,0.34090375900268555,-6.625091075897217
1680996926578165200,0.911165283203125,-6.381318092346191,-0.2452636957168579,-4.518404006958008
1680996926588205800,0.921205810546875,-5.785250663757324,0.9803630113601685,-1.9723787307739258
1680996926598246400,0.931246337890625,-3.9877986907958984,1.832895278930664,-1.3984359502792358
1680996926608287000,0.941286865234375,-1.2181377410888672,2.0751068592071533,-0.3703737258911133
1680996926618327600,0.95132763671875,-0.11721515655517578,-0.11392617225646973,1.1933939456939697
1680996926628368100,0.9613681640625,-0.3572721481323242,-1.7995977401733398,1.121493935585022
1680996926638408700,0.97140869140625,-1.714822769165039,-4.157651901245117,0.012036323547363281
1680996926648449300,0.98144921875,-2.491446018218994,-5.477839469909668,-1.4514018297195435
1680996926658489900,0.99148974609375,-3.7765283584594727,-4.4896697998046875,-3.498384952545166
1680996926668530400,1.001530517578125,-5.628373146057129,-1.3995122909545898,-5.912031173706055
1680996926678571000,1.011571044921875,-1.1843886375427246,0.7553234100341797,-4.165089130401611
1680996926688611600,1.021611572265625,0.8917150497436523,0.042382240295410156,-1.0774250030517578
1680996926698652200,1.031652099609375,4.453798294067383,-0.6183812618255615,0.2228686511516571
1680996926708692700,1.041692626953125,7.687331199645996,-1.280507206916809,3.1765296459198
1680996926718733300,1.0517333984375,8.589200019836426,-1.607234001159668,6.004253387451172
1680996926728774000,1.06177392578125,8.756719589233398,-2.855924367904663,7.282846450805664
1680996926738814500,1.071814453125,9.680807113647461,-5.293777942657471,6.735824108123779
1680996926748855000,1.08185498046875,10.170146942138672,-7.66737174987793,4.707939147949219
1680996926758895600,1.0918955078125,9.646883964538574,-8.266647338867188,2.193952798843384
1680996926768936200,1.101936279296875,9.365154266357422,-8.610037803649902,1.9948663711547852
1680996926778976800,1.111976806640625,10.774317741394043,-9.900369644165039,4.712927341461182
1680996926789017300,1.122017333984375,10.50820541381836,-5.457033634185791,3.688102960586548
1680996926799058000,1.132057861328125,7.781156539916992,-2.635624647140503,1.6791110038757324
1680996926809098500,1.142098388671875,4.22982120513916,-1.82728910446167,0.5102245807647705
1680996926819139000,1.15213916015625,0.8610925674438477,-1.0003619194030762,-0.5839765071868896
1680996926829179600,1.1621796875,-2.1299166679382324,-0.3140745162963867,-0.6313945055007935
1680996926839220200,1.17222021484375,-5.151474952697754,-0.35228997468948364,-1.7326147556304932
1680996926849260800,1.1822607421875,-6.144765377044678,1.574489712715149,-2.9266159534454346
1680996926859301400,1.19230126953125,-5.514976501464844,3.354302167892456,-2.2990574836730957
1680996926869342000,1.202342041015625,-4.700024604797363,3.055800437927246,-1.099293828010559
1680996926879382500,1.212382568359375,-3.6062064170837402,2.5057811737060547,-0.6454610228538513
1680996926889423000,1.222423095703125,-3.059380531311035,2.4122090339660645,-0.6301514506340027
1680996926899463700,1.232463623046875,-3.773282051086426,1.894020676612854,-0.2745860815048218
1680996926909504300,1.242504150390625,-4.241771697998047,1.0937068462371826,-0.5677301287651062
1680996926919544800,1.252544921875,-4.339885234832764,0.36143583059310913,-1.6196765899658203
1680996926929585400,1.26258544921875,-4.158271789550781,0.7892606258392334,-2.0715696811676025
1680996926939626000,1.2726259765625,-3.5117950439453125,1.1408908367156982,-0.8242002129554749
1680996926949666600,1.28266650390625,-1.3431158065795898,0.22205686569213867,1.2249666452407837
1680996926959707100,1.29270703125,-0.9134864807128906,0.3957256078720093,2.7659754753112793
1680996926969747700,1.302747802734375,0.7396230697631836,-0.9151872396469116,5.491911888122559
1680996926979788300,1.312788330078125,0.7865409851074219,-1.1853972673416138,5.809856414794922
1680996926989828900,1.322828857421875,0.21257305145263672,-0.5990778207778931,5.009804725646973
1680996926999869200,1.332869140625,-1.5667610168457031,-0.5903344750404358,5.160351276397705
1680996927009909800,1.34290966796875,-3.3188161849975586,-0.7122197151184082,6.814828872680664
1680996927019950300,1.352950439453125,-3.2307376861572266,-0.4889937937259674,7.271846771240234
1680996927029991000,1.362990966796875,-2.4415435791015625,0.26572185754776,5.968887805938721
1680996927040031500,1.373031494140625,-0.1085062026977539,-0.3133344054222107,7.196532726287842
1680996927050072000,1.383072021484375,4.5183820724487305,-2.2103633880615234,6.5084428787231445
1680996927060112600,1.393112548828125,9.34286117553711,-1.8326857089996338,4.650362014770508
1680996927070153200,1.4031533203125,12.147775650024414,-4.62225341796875,5.827911376953125
1680996927080193800,1.41319384765625,12.093360900878906,-8.186300277709961,8.712748527526855
1680996927090234400,1.423234375,10.01205062866211,-5.072099208831787,6.600169658660889
1680996927100275000,1.43327490234375,11.381034851074219,-3.08337140083313,4.464384078979492
1680996927110315500,1.4433154296875,9.872251510620117,-0.715767502784729,2.3007030487060547
1680996927120356000,1.453356201171875,0.9919414520263672,-0.8121329545974731,-1.2258329391479492
1680996927130396700,1.463396728515625,-3.9998393058776855,-0.2718925476074219,-2.7320735454559326
1680996927140437200,1.473437255859375,-1.4761028289794922,0.8534185886383057,-2.8837430477142334
1680996927150477800,1.483477783203125,1.4046192169189453,1.9379558563232422,-3.995436191558838
1680996927160518400,1.493518310546875,3.857637405395508,2.5203323364257812,-4.105716228485107
1680996927170559000,1.50355908203125,3.1650142669677734,1.0042892694473267,-2.3766963481903076
1680996927180599600,1.513599609375,-0.34282398223876953,2.7403640747070312,-0.3863588571548462
1680996927190640000,1.52364013671875,-3.5001049041748047,3.262596607208252,5.575193881988525
1680996927200680700,1.5336806640625,-8.796263694763184,4.280583381652832,2.8944618701934814
1680996927210721300,1.54372119140625,-5.349799156188965,2.344806671142578,-2.1362719535827637
1680996927220761900,1.553761962890625,-3.7883706092834473,1.5394952297210693,-4.7768354415893555
1680996927230802400,1.563802490234375,-4.735550880432129,2.525076389312744,-5.733837604522705
1680996927240843000,1.573843017578125,-8.182378768920898,2.9737863540649414,-4.360325336456299
1680996927250883600,1.583883544921875,-7.662106513977051,2.4871292114257812,-3.780625104904175
1680996927260924200,1.593924072265625,-7.003213882446289,1.6216851472854614,-4.2359418869018555
1680996927270964700,1.60396484375,-7.36456298828125,0.11024010181427002,-3.1109721660614014
1680996927281005300,1.61400537109375,-7.4554243087768555,1.5916842222213745,-5.666062355041504
1680996927291046000,1.6240458984375,-7.51764440536499,0.3977084159851074,-4.686672687530518
1680996927301086500,1.63408642578125,-7.315235137939453,-0.5989781618118286,-2.5303807258605957
1680996927311127000,1.644126953125,-6.0484514236450195,-0.7371616363525391,-2.206691026687622
1680996927321167600,1.654167724609375,-5.030673027038574,-0.5404021739959717,-2.3127005100250244
1680996927331208200,1.664208251953125,-4.208296298980713,-0.0804368257522583,-2.5191848278045654
1680996927341248800,1.674248779296875,-2.4344077110290527,0.09599661827087402,-3.015963554382324
1680996927351289300,1.684289306640625,-0.6523857116699219,-0.5411478281021118,-3.437335968017578
1680996927361330000,1.694329833984375,1.5952081680297852,-1.1097462177276611,-2.7695112228393555
1680996927371370500,1.70437060546875,5.350008010864258,0.03725385665893555,-3.104780435562134
1680996927381411000,1.7144111328125,8.458605766296387,0.8127245903015137,-1.2930731773376465
1680996927391451600,1.72445166015625,11.439842224121094,2.3665828704833984,-1.6099692583084106
1680996927401492200,1.7344921875,14.91734790802002,1.753035306930542,-4.325477600097656
1680996927411532800,1.74453271484375,14.197751998901367,0.8277463912963867,-4.830319881439209
1680996927421573400,1.754573486328125,13.693031311035156,0.40689563751220703,-3.382761240005493
1680996927431614000,1.764614013671875,12.542245864868164,1.1729285717010498,-3.1252830028533936
1680996927441654500,1.774654541015625,11.305910110473633,1.0318217277526855,-3.220170736312866
1680996927451695000,1.784695068359375,7.927892684936523,-0.37965941429138184,-1.9992164373397827
1680996927461735700,1.794735595703125,5.302733421325684,-1.80428147315979,-0.9700708985328674
1680996927471776300,1.8047763671875,3.836848258972168,-2.5959250926971436,-0.8911963701248169
1680996927481816800,1.81481689453125,2.6561336517333984,-2.8444664478302,0.30907565355300903
1680996927491857400,1.824857421875,1.922978401184082,-3.442960262298584,1.7365649938583374
1680996927501898000,1.83489794921875,0.6859903335571289,-4.154901504516602,2.8745083808898926
1680996927511938600,1.8449384765625,-0.6742057800292969,-4.906607151031494,3.6792056560516357
1680996927521979100,1.854979248046875,-1.5669231414794922,-5.050732135772705,4.386725902557373
1680996927532019700,1.865019775390625,-2.7142953872680664,-5.714602470397949,4.626742362976074
1680996927542060300,1.875060302734375,-4.326519012451172,-5.5056352615356445,5.037262439727783
1680996927552100900,1.885100830078125,-6.451962471008301,-4.985566139221191,4.993858814239502
1680996927562141400,1.895141357421875,-7.663116455078125,-4.16584587097168,4.807412147521973
1680996927572182000,1.90518212890625,-7.518543243408203,-3.4783170223236084,4.569572925567627
1680996927582222600,1.91522265625,-7.637259483337402,-3.248145341873169,4.720139503479004
1680996927592263200,1.92526318359375,-7.628054141998291,-2.9858553409576416,4.776043891906738
1680996927602303700,1.9353037109375,-7.555591583251953,-2.81754207611084,4.438021659851074
1680996927612344300,1.94534423828125,-7.96134614944458,-2.94006085395813,4.172085285186768
1680996927622385000,1.955385009765625,-8.056355476379395,-2.6324210166931152,3.682760715484619
1680996927632425500,1.965425537109375,-7.955053329467773,-2.01129412651062,2.8586020469665527
1680996927642466000,1.975466064453125,-8.411243438720703,-1.0137155055999756,2.573148250579834
1680996927652506600,1.985506591796875,-8.788439750671387,-0.16225643455982208,2.3072524070739746
1680996927662547200,1.995547119140625,-8.308006286621094,-0.046179622411727905,2.656386375427246
1680996927672587800,2.005587890625,-7.5877861976623535,-0.5919004082679749,2.89345645904541
1680996927682628400,2.01562841796875,-7.360408306121826,-1.518475890159607,3.0435662269592285
1680996927692669000,2.0256689453125,-7.358678340911865,-1.950913906097412,2.8355445861816406
1680996927702709500,2.03570947265625,-6.669455528259277,-0.1928412914276123,1.0915353298187256
1680996927712750000,2.04575,7.343044281005859,5.481392860412598,2.0174214839935303
1680996927722790700,2.055790771484375,13.582625389099121,9.710837364196777,-12.710739135742188
1680996927732831200,2.065831298828125,1.5487298965454102,1.7104249000549316,5.219396591186523
1680996927742871800,2.075871826171875,8.129387855529785,-0.06424760818481445,5.283960342407227
1680996927752912400,2.085912353515625,12.123064041137695,-0.4402264356613159,6.797371864318848
1680996927762953000,2.095952880859375,11.883682250976562,-6.415015697479248,6.338059902191162
1680996927772993500,2.10599365234375,15.560484886169434,-10.601150512695312,4.311559677124023
1680996927783034000,2.1160341796875,17.650196075439453,-11.77946949005127,3.6892406940460205
1680996927793074700,2.12607470703125,16.429285049438477,-9.533886909484863,2.96455717086792
1680996927803115300,2.136115234375,15.431148529052734,-4.583277225494385,0.46930956840515137
1680996927813155800,2.14615576171875,12.518394470214844,-1.8579943180084229,-0.0024471282958984375
1680996927823196400,2.156196533203125,7.847377777099609,0.20985591411590576,-3.1461360454559326
1680996927833236700,2.16623681640625,8.212504386901855,3.957184314727783,-2.3826441764831543
1680996927843277300,2.17627734375,5.435824394226074,3.987657308578491,-1.7777584791183472
1680996927853318000,2.18631787109375,3.2258472442626953,4.15789794921875,-2.366006374359131
1680996927863358500,2.1963583984375,1.2263116836547852,3.261641263961792,-3.7951393127441406
1680996927873399000,2.20639892578125,-0.6890296936035156,1.235384225845337,-4.709068775177002
1680996927883439600,2.216439697265625,-3.3838305473327637,0.8310818672180176,-5.0082550048828125
1680996927893480200,2.226480224609375,-3.0695977210998535,1.23469877243042,-4.088622093200684
1680996927903520800,2.236520751953125,-2.829458236694336,0.566298246383667,-6.075316429138184
1680996927913561300,2.246561279296875,-5.788661956787109,2.0336084365844727,-7.341009140014648
1680996927923602000,2.256601806640625,-7.8632025718688965,4.298824787139893,-6.479643821716309
1680996927933642500,2.266642578125,-9.404178619384766,2.0113699436187744,-7.576910972595215
1680996927943683000,2.27668310546875,-10.510924339294434,1.563880443572998,-8.238200187683105
1680996927953723600,2.2867236328125,-11.465243339538574,1.554776906967163,-7.5488176345825195
1680996927963764200,2.29676416015625,-11.246258735656738,-0.20733428001403809,-8.260462760925293
1680996927973804800,2.3068046875,-10.210677146911621,-0.026631832122802734,-8.180115699768066
1680996927983845400,2.316845458984375,-9.791190147399902,-0.536372184753418,-7.879924774169922
1680996927993886000,2.326885986328125,-8.46234130859375,-1.564894199371338,-7.585959434509277
1680996928003926500,2.336926513671875,-7.270427703857422,-2.7299644947052,-7.222978591918945
1680996928013967000,2.346967041015625,-7.810209274291992,-2.385831832885742,-6.3825836181640625
1680996928024007700,2.357007568359375,-7.4092488288879395,-2.3168387413024902,-5.909782886505127
1680996928034048300,2.36704833984375,-6.76047420501709,-2.731844425201416,-5.160457611083984
1680996928044088800,2.3770888671875,-6.790704250335693,-3.2510058879852295,-4.35176944732666
1680996928054129400,2.38712939453125,-4.5521769523620605,-3.5902814865112305,-3.2218611240386963
1680996928064170000,2.397169921875,-1.7499408721923828,-4.7793989181518555,-1.129047155380249
1680996928074210600,2.40721044921875,5.095869064331055,-3.198481559753418,6.751392364501953
1680996928084251100,2.417251220703125,0.06514453887939453,1.1058990955352783,2.1238980293273926
1680996928094291700,2.427291748046875,-5.248780727386475,-2.6043612957000732,-0.14130711555480957
1680996928104332300,2.437332275390625,-15.514410018920898,-1.0867688655853271,9.451385498046875
1680996928114372900,2.447372802734375,-4.170236587524414,2.29730224609375,7.037176609039307
1680996928124413400,2.457413330078125,4.38779354095459,0.5472207069396973,9.808061599731445
1680996928134454000,2.4674541015625,8.729808807373047,-1.1708015203475952,9.612531661987305
1680996928144494600,2.47749462890625,10.197068214416504,-3.983320951461792,8.948387145996094
1680996928154535200,2.48753515625,8.338324546813965,-6.698637008666992,7.680540084838867
1680996928164575700,2.49757568359375,6.427734375,-8.21471881866455,5.596486568450928
1680996928174616300,2.5076162109375,3.4602861404418945,-9.867109298706055,4.78956413269043
1680996928184657000,2.517656982421875,1.3120489120483398,-9.980598449707031,5.083974361419678
1680996928194697500,2.527697509765625,-0.9592123031616211,-9.602622985839844,4.45156717300415
1680996928204738000,2.537738037109375,-0.9141912460327148,-8.969539642333984,3.969393253326416
1680996928214778600,2.547778564453125,1.9341139793395996,-9.794461250305176,3.990947723388672
1680996928224819200,2.557819091796875,5.480138778686523,-10.645630836486816,4.194579601287842
1680996928234859800,2.56785986328125,4.50214958190918,-10.061317443847656,6.4148359298706055
1680996928244900400,2.577900390625,8.85282039642334,-7.612156867980957,3.5088329315185547
1680996928254941000,2.58794091796875,6.940786361694336,-6.638905048370361,2.2800827026367188
1680996928264981500,2.5979814453125,4.873255729675293,-5.376725196838379,4.845885276794434
1680996928275022000,2.60802197265625,4.794748306274414,-2.058378219604492,3.2032928466796875
1680996928285062700,2.618062744140625,3.320021152496338,-0.987802267074585,-0.7071733474731445
1680996928295103200,2.628103271484375,1.6549396514892578,-0.21377909183502197,-4.213149070739746
1680996928305143800,2.638143798828125,1.188011884689331,0.40489768981933594,-5.423739433288574
1680996928315184400,2.648184326171875,1.7842323780059814,0.4881017208099365,-4.386271953582764
1680996928325225000,2.658224853515625,1.8474024534225464,1.7996392250061035,-2.98543643951416
1680996928335265500,2.668265625,1.6612083911895752,4.419347763061523,-4.899899482727051
1680996928345306000,2.67830615234375,0.44767534732818604,4.495928764343262,-2.179569721221924
1680996928355346700,2.6883466796875,0.7889169454574585,5.8734846115112305,0.6389040946960449
1680996928365387300,2.69838720703125,1.6282174587249756,7.579957485198975,2.7039480209350586
1680996928375427800,2.708427734375,2.656036376953125,9.102792739868164,4.571983814239502
1680996928385468400,2.718468505859375,3.6619415283203125,9.016033172607422,2.639399528503418
1680996928395509000,2.728509033203125,2.913255453109741,7.417222023010254,4.939252853393555
1680996928405549600,2.738549560546875,2.516920804977417,6.611630916595459,5.873488426208496
1680996928415590100,2.748590087890625,1.4347184896469116,5.9084038734436035,7.111505031585693
1680996928425630700,2.758630615234375,0.2740468978881836,3.2984347343444824,8.367086410522461
1680996928435671300,2.76867138671875,0.41441309452056885,-0.8426914215087891,11.910295486450195
1680996928445712000,2.7787119140625,1.9349420070648193,-4.527240753173828,12.392875671386719
1680996928455752400,2.78875244140625,6.731522083282471,-7.909812927246094,10.707512855529785
1680996928465793000,2.79879296875,11.246631622314453,-10.627413749694824,8.970927238464355
1680996928475833600,2.80883349609375,14.22287368774414,-15.164754867553711,12.39813232421875
1680996928485874000,2.8188740234375,14.608830451965332,-17.409469604492188,16.731338500976562
1680996928495914500,2.82891455078125,12.646965026855469,-17.033863067626953,19.33797836303711
1680996928505955000,2.838955078125,7.967687606811523,-14.15268611907959,19.99312973022461
1680996928515995600,2.84899560546875,2.5588715076446533,-10.989992141723633,12.894857406616211
1680996928526036200,2.8590361328125,-3.3921456336975098,-10.72899341583252,10.153010368347168
1680996928536076800,2.869076904296875,-9.337254524230957,-9.752323150634766,11.585488319396973
1680996928546117400,2.879117431640625,-12.372220993041992,-9.864317893981934,8.988805770874023
1680996928556158000,2.889157958984375,-11.037967681884766,-10.456560134887695,11.700180053710938
1680996928566198500,2.899198486328125,-10.387019157409668,-7.100930213928223,12.846445083618164
1680996928576239000,2.909239013671875,-13.31483268737793,-2.876312255859375,12.353203773498535
1680996928586279700,2.91927978515625,-5.986492156982422,-1.6466388702392578,11.680951118469238
1680996928596320300,2.9293203125,1.0331177711486816,-0.3667459487915039,8.309112548828125
1680996928606360800,2.93936083984375,2.8422605991363525,0.7273521423339844,3.7185006141662598
1680996928616401400,2.9494013671875,2.1302590370178223,2.2913055419921875,-1.0419583320617676
1680996928626442000,2.95944189453125,2.468743324279785,5.476327896118164,-4.255756855010986
1680996928636482600,2.969482666015625,1.7728478908538818,8.777717590332031,-7.250753879547119
1680996928646523100,2.979523193359375,0.14227724075317383,8.20853042602539,-7.1015214920043945
1680996928656563700,2.989563720703125,3.088303804397583,9.815902709960938,-9.716577529907227
1680996928666604300,2.999604248046875,4.192521572113037,11.661060333251953,-7.585677623748779
1680996928676644900,3.009644775390625,3.010927200317383,10.894269943237305,-6.174394130706787
1680996928686685400,3.019685546875,-2.4298315048217773,11.787903785705566,-7.1068949699401855
1680996928696726000,3.02972607421875,-4.493536472320557,11.579180717468262,-7.200037479400635
1680996928706766600,3.0397666015625,-6.47890043258667,10.207388877868652,-9.64100170135498
1680996928716807200,3.04980712890625,-9.326276779174805,10.79867935180664,-14.153671264648438
1680996928726847700,3.05984765625,-7.742263317108154,9.065999984741211,-15.832289695739746
1680996928736888300,3.069888427734375,-4.725198268890381,7.111080169677734,-17.893888473510742
1680996928746929000,3.079928955078125,-1.2053941488265991,5.727971076965332,-13.86867618560791
1680996928756969500,3.089969482421875,-0.5511393547058105,6.076745986938477,-11.272758483886719
1680996928767010000,3.100010009765625,-2.3458399772644043,1.8761508464813232,-16.720685958862305
1680996928777050600,3.110050537109375,-0.04677927494049072,-1.0561985969543457,-17.515907287597656
1680996928787091200,3.12009130859375,-4.201406478881836,-5.451960563659668,-14.09937572479248
1680996928797131800,3.1301318359375,-1.1966142654418945,-1.0939927101135254,-4.857522964477539
1680996928807172400,3.14017236328125,11.01851749420166,-0.28623247146606445,0.7619524002075195
1680996928817213000,3.150212890625,8.856328010559082,-7.829204082489014,2.912266731262207
1680996928827253500,3.16025341796875,4.52940559387207,-4.949894905090332,-0.2971935272216797
1680996928837294000,3.170294189453125,-0.9356693029403687,-3.417524576187134,2.0379953384399414
1680996928847334700,3.180334716796875,0.4054269790649414,-2.9275190830230713,8.26388168334961
1680996928857375200,3.190375244140625,5.348750114440918,2.2615444660186768,7.5880584716796875
1680996928867415800,3.200415771484375,5.3895440101623535,-9.52353286743164,13.783178329467773
1680996928877456400,3.210456298828125,7.989174842834473,-7.766210556030273,10.876307487487793
1680996928887497000,3.2204970703125,4.372944355010986,-4.988771438598633,13.293498039245605
1680996928897537500,3.23053759765625,-2.1751163005828857,0.04002833366394043,13.283495903015137
1680996928907578000,3.240578125,-3.3581485748291016,1.8188380002975464,13.360437393188477
1680996928917618700,3.25061865234375,-1.037475824356079,1.6022931337356567,14.713677406311035
1680996928927659300,3.2606591796875,0.35902702808380127,1.0955939292907715,12.965530395507812
1680996928937699800,3.270699951171875,0.034659385681152344,1.116670846939087,9.234196662902832
1680996928947740400,3.280740478515625,0.6151840686798096,0.8358674049377441,6.709429740905762
1680996928957781000,3.290781005859375,1.3874495029449463,1.3619654178619385,4.758398056030273
1680996928967821600,3.300821533203125,1.50146484375,0.5353171825408936,1.287221908569336
1680996928977862100,3.310862060546875,1.3598661422729492,0.8317837715148926,-2.1397247314453125
1680996928987902500,3.32090234375,0.1568356156349182,0.8443052768707275,-5.425912857055664
1680996928997943000,3.330943115234375,-2.216611385345459,1.61063551902771,-8.608122825622559
1680996929007983600,3.340983642578125,-3.9635069370269775,1.5952539443969727,-10.747673034667969
1680996929018024200,3.351024169921875,-3.4468579292297363,1.136080265045166,-12.300775527954102
1680996929028064800,3.361064697265625,-1.9469232559204102,0.5587062835693359,-13.281267166137695
1680996929038105300,3.371105224609375,-2.9160115718841553,-0.08459615707397461,-13.65538215637207
1680996929048146000,3.38114599609375,-1.3577960729599,0.44713306427001953,-14.637946128845215
1680996929058186500,3.3911865234375,-0.1974574327468872,0.7787079811096191,-13.758346557617188
1680996929068227000,3.40122705078125,-0.14099276065826416,1.7361958026885986,-12.477578163146973
1680996929078267600,3.411267578125,-0.6056299209594727,3.076561689376831,-12.27767562866211
1680996929088308200,3.42130810546875,-1.235682487487793,2.765951156616211,-11.049483299255371
1680996929098348800,3.431348876953125,-0.8575817942619324,2.2062950134277344,-9.211371421813965
1680996929108389400,3.441389404296875,-0.7594192028045654,1.541245460510254,-7.311887741088867
1680996929118430000,3.451429931640625,0.0007508993148803711,-0.043883323669433594,-4.875514984130859
1680996929128470500,3.461470458984375,1.2922487258911133,-1.0281200408935547,-2.4999608993530273
1680996929138511000,3.471510986328125,1.308143973350525,-2.2372283935546875,-0.77984619140625
1680996929148551700,3.4815517578125,-0.17728781700134277,-4.604366779327393,0.9728317260742188
1680996929158592300,3.49159228515625,-0.9126572608947754,-8.600455284118652,3.8227124214172363
1680996929168632800,3.5016328125,0.6716932058334351,-12.234657287597656,6.156115531921387
1680996929178673400,3.51167333984375,5.992997169494629,-15.131738662719727,10.386360168457031
1680996929188714000,3.5217138671875,10.503942489624023,-15.996797561645508,14.278135299682617
1680996929198754600,3.531754638671875,12.028861045837402,-18.27532958984375,16.011625289916992
1680996929208795100,3.541795166015625,13.699591636657715,-20.239055633544922,17.947031021118164
1680996929218835700,3.551835693359375,12.988134384155273,-16.815019607543945,16.26297378540039
1680996929228876300,3.561876220703125,9.097768783569336,-12.895101547241211,13.335504531860352
1680996929238916900,3.571916748046875,4.12846040725708,-10.56947135925293,12.762739181518555
1680996929248957400,3.58195751953125,0.11727011203765869,-8.047757148742676,12.620284080505371
1680996929258998000,3.591998046875,-0.4522255063056946,-5.286169528961182,12.434541702270508
1680996929269038600,3.60203857421875,-1.6721277236938477,-2.8972043991088867,12.640302658081055
1680996929279079200,3.6120791015625,-2.677812337875366,-1.6533284187316895,12.098471641540527
1680996929289119700,3.62211962890625,-8.224506378173828,0.4738636016845703,10.008444786071777
1680996929299160300,3.632160400390625,-8.167447090148926,2.9813573360443115,7.586796760559082
1680996929309201000,3.642200927734375,-3.847184419631958,5.014851093292236,5.648445129394531
1680996929319241500,3.652241455078125,1.8586654663085938,8.993003845214844,2.1860861778259277
1680996929329282000,3.662281982421875,-1.728337287902832,8.413640022277832,1.4170680046081543
1680996929339322600,3.672322509765625,-4.785367965698242,7.982679843902588,-2.432586193084717
1680996929349363200,3.68236328125,-4.18807315826416,9.691364288330078,-5.99569845199585
1680996929359403800,3.69240380859375,-2.847909927368164,10.645394325256348,-10.415946006774902
1680996929369444400,3.7024443359375,-1.0749238729476929,11.498757362365723,-12.345809936523438
1680996929379485000,3.71248486328125,-0.2604355812072754,12.144968032836914,-12.625508308410645
1680996929389525500,3.722525390625,-0.437758207321167,12.367513656616211,-13.20416259765625
1680996929399566000,3.732566162109375,-1.761993646621704,12.368721008300781,-12.396306037902832
1680996929409606700,3.742606689453125,-1.284213662147522,11.854402542114258,-11.31161880493164
1680996929419647200,3.752647216796875,0.7161611318588257,10.591400146484375,-10.58761215209961
1680996929429687800,3.762687744140625,2.0377910137176514,10.102985382080078,-7.724087715148926
1680996929439728400,3.772728271484375,0.4492543041706085,6.9653472900390625,-10.262110710144043
1680996929449769000,3.78276904296875,0.9328746795654297,3.166158437728882,-7.821169853210449
1680996929459809500,3.7928095703125,1.6571333408355713,0.011642694473266602,-9.8842191696167
1680996929469850000,3.80285009765625,4.118832111358643,-2.8833305835723877,-10.41342544555664
1680996929479890700,3.812890625,0.6401391625404358,-4.064095497131348,-8.415581703186035
1680996929489931300,3.82293115234375,-8.449189186096191,-3.8899872303009033,-4.465299606323242
1680996929499971800,3.832971923828125,-5.664270877838135,-4.407336235046387,6.333015441894531
1680996929510012400,3.843012451171875,6.051826000213623,-6.46881103515625,8.120729446411133
1680996929520053000,3.853052978515625,5.706465244293213,-3.7373106479644775,-1.6699347496032715
1680996929530093600,3.863093505859375,7.9515604972839355,-2.5792298316955566,-3.1417946815490723
1680996929540134100,3.873134033203125,7.173224449157715,-4.280158996582031,5.870550155639648
1680996929550174700,3.8831748046875,2.9491007328033447,-2.671764373779297,9.029515266418457
1680996929560215300,3.89321533203125,-0.7262207269668579,-4.631346702575684,11.11072063446045
1680996929570256000,3.903255859375,-1.554626703262329,-4.793399810791016,12.824769973754883
1680996929580296400,3.91329638671875,2.4736125469207764,-5.692838668823242,9.403366088867188
1680996929590337000,3.9233369140625,6.5366621017456055,-6.769403457641602,7.477555274963379
1680996929600377600,3.933377685546875,1.405550479888916,-7.768642425537109,9.467999458312988
1680996929610418200,3.943418212890625,-2.3494534492492676,-5.312734603881836,9.88611125946045
1680996929620458800,3.953458740234375,-0.7896009087562561,-4.106444358825684,6.795577049255371
1680996929630499300,3.963499267578125,-0.3654688596725464,-4.926205158233643,4.4075775146484375
1680996929640540000,3.973539794921875,-0.6940336227416992,-4.716032028198242,2.6927852630615234
1680996929650580500,3.98358056640625,-0.6233840584754944,-4.644896507263184,1.0505552291870117
1680996929660620800,3.993620849609375,0.6570997834205627,-4.906882286071777,-1.9177031517028809
1680996929670661400,4.003661376953125,1.4156363010406494,-4.832014083862305,-2.7374844551086426
1680996929680702000,4.013701904296875,1.714779019355774,-4.342668056488037,-0.9638628959655762
1680996929690742500,4.023742431640625,1.7014645338058472,-2.80794620513916,1.2764348983764648
1680996929700783000,4.033783203125,2.5214269161224365,-1.0016837120056152,3.254030704498291
1680996929710823700,4.04382373046875,4.140627384185791,0.5363545417785645,3.4721570014953613
1680996929720864300,4.0538642578125,3.7418601512908936,1.5912914276123047,2.9125313758850098
1680996929730904800,4.06390478515625,-0.16139376163482666,4.235124111175537,1.331678867340088
1680996929740945400,4.0739453125,-2.406438112258911,6.382905960083008,-0.34922027587890625
1680996929750986000,4.083986083984375,-0.612686038017273,7.90867280960083,-1.1010022163391113
1680996929761026600,4.094026611328125,4.932928085327148,6.992246150970459,-0.20775938034057617
1680996929771067100,4.104067138671875,-3.53564453125,8.028526306152344,-0.08544778823852539
1680996929781107700,4.114107666015625,-2.374720573425293,9.950051307678223,-0.27008056640625
1680996929791148300,4.124148193359375,-3.8621339797973633,10.024606704711914,-0.06029558181762695
1680996929801188900,4.13418896484375,-2.9180870056152344,10.907744407653809,0.5966281890869141
1680996929811229400,4.1442294921875,-2.281726360321045,11.435519218444824,1.0789003372192383
1680996929821270000,4.15427001953125,-4.5537824630737305,12.347246170043945,-0.5819902420043945
1680996929831310600,4.164310546875,-0.8566837310791016,9.569366455078125,2.8505020141601562
1680996929841351200,4.17435107421875,-1.393712043762207,10.31451416015625,-0.8244462013244629
1680996929851391700,4.184391845703125,-10.761375427246094,8.426051139831543,-7.414280891418457
1680996929861432300,4.194432373046875,-18.930240631103516,7.327761650085449,-15.91073226928711
1680996929871473000,4.204472900390625,-10.331192970275879,3.5529277324676514,-10.51383113861084
1680996929881513500,4.214513427734375,0.7669258117675781,3.192695140838623,-1.0465264320373535
1680996929891554000,4.224553955078125,4.984307289123535,0.010639667510986328,7.029844760894775
1680996929901594600,4.2345947265625,6.352123260498047,-7.687384128570557,7.356871128082275
1680996929911635200,4.24463525390625,9.393194198608398,-12.494009017944336,10.16154670715332
1680996929921675800,4.25467578125,6.73939323425293,-13.113081932067871,12.264759063720703
1680996929931716400,4.26471630859375,-2.006065607070923,-10.507589340209961,9.829145431518555
1680996929941757000,4.2747568359375,-2.728515863418579,-7.263269424438477,10.482626914978027
1680996929951797500,4.284797607421875,-2.169931173324585,-5.923942565917969,12.717302322387695
1680996929961838000,4.294838134765625,-0.006502971053123474,-2.989572048187256,12.908143997192383
1680996929971878700,4.304878662109375,3.8472352027893066,-1.291259765625,12.14919662475586
1680996929981919200,4.314919189453125,6.850865840911865,-1.369178295135498,7.875716209411621
1680996929991959800,4.324959716796875,5.652862548828125,0.39090514183044434,5.792191505432129
1680996930002000400,4.33500048828125,3.0457968711853027,0.21639633178710938,3.793240547180176
1680996930012041000,4.345041015625,-0.5619502067565918,0.052956342697143555,0.7372970581054688
1680996930022081500,4.35508154296875,-2.481083393096924,-0.23075270652770996,-0.4118947982788086
1680996930032122000,4.3651220703125,-3.679309368133545,-0.5154421329498291,-0.41602420806884766
1680996930042162700,4.37516259765625,-4.237414360046387,0.48033881187438965,-1.1619396209716797
1680996930052203300,4.385203369140625,-4.5983476638793945,1.7501035928726196,-3.2053117752075195
1680996930062243800,4.395243896484375,-3.6022512912750244,2.4271397590637207,-6.6207380294799805
1680996930072284400,4.405284423828125,-0.9459269046783447,2.053471088409424,-10.692728042602539
1680996930082325000,4.415324951171875,1.8000411987304688,8.127767562866211,-11.661161422729492
1680996930092365600,4.425365478515625,4.167262077331543,5.616016864776611,-12.610214233398438
1680996930102406100,4.43540625,6.494154453277588,2.624319553375244,-12.303995132446289
1680996930112446700,4.44544677734375,8.588850975036621,-0.08387923240661621,-13.493059158325195
1680996930122487300,4.4554873046875,8.68204116821289,-1.4646801948547363,-13.271758079528809
1680996930132527900,4.46552783203125,6.6023173332214355,-3.5829122066497803,-9.71468448638916
1680996930142568400,4.475568359375,5.103525638580322,-3.2392566204071045,-5.8614091873168945
1680996930152609000,4.485609130859375,2.204072952270508,-2.9348013401031494,-0.7815217971801758
1680996930162649600,4.495649658203125,-3.3993101119995117,-1.8705956935882568,3.0269222259521484
1680996930172690200,4.505690185546875,-4.563694953918457,1.0035426616668701,6.545180320739746
1680996930182730800,4.515730712890625,-3.1820766925811768,0.3414645195007324,6.340065002441406
1680996930192771300,4.525771240234375,2.068998098373413,-4.256870746612549,1.1493101119995117
1680996930202812000,4.53581201171875,8.195508003234863,-10.624698638916016,-3.929267406463623
1680996930212852500,4.5458525390625,-4.5083136558532715,-14.042210578918457,-7.791175365447998
1680996930222893000,4.55589306640625,-4.750057220458984,-10.416303634643555,-1.6421504020690918
1680996930232933600,4.56593359375,-0.6142451763153076,-5.098625659942627,-2.7219467163085938
1680996930242974200,4.57597412109375,4.757569313049316,-8.72118854522705,0.27663278579711914
1680996930253014800,4.586014892578125,4.016615867614746,-11.298728942871094,7.143953323364258
1680996930263055400,4.596055419921875,-0.42609286308288574,-11.734100341796875,7.374227046966553
1680996930273096000,4.606095947265625,-4.900779724121094,-7.304089546203613,9.658332824707031
1680996930283136500,4.616136474609375,0.08641564846038818,-5.523052215576172,10.188526153564453
1680996930293177000,4.626177001953125,2.3639426231384277,-7.02377462387085,8.923327445983887
1680996930303217700,4.6362177734375,-5.324094772338867,-6.902247428894043,9.211273193359375
1680996930313258200,4.64625830078125,-8.394506454467773,-3.6504344940185547,8.550652503967285
1680996930323298800,4.656298828125,-4.271498680114746,-3.069734573364258,7.831993103027344
1680996930333339400,4.66633935546875,-2.7757863998413086,-3.659656524658203,6.49927282333374
1680996930343380000,4.6763798828125,-3.276695966720581,-2.033418655395508,3.7700414657592773
1680996930353420500,4.686420654296875,-2.6360387802124023,-2.631058692932129,3.7869362831115723
1680996930363461000,4.696461181640625,-2.8578648567199707,-0.8668336868286133,1.3847689628601074
1680996930373501700,4.706501708984375,-2.112889051437378,1.7468414306640625,1.1250462532043457
1680996930383542300,4.716542236328125,-1.2218700647354126,4.629725456237793,1.243288516998291
1680996930393582800,4.726582763671875,-3.0747642517089844,8.973335266113281,-1.6777446269989014
1680996930403623400,4.73662353515625,-2.8328511714935303,10.081160545349121,-3.4905877113342285
1680996930413664000,4.7466640625,-1.1680972576141357,10.165809631347656,-6.8960442543029785
1680996930423704600,4.75670458984375,0.2714841365814209,10.29425048828125,-8.44070816040039
1680996930433745200,4.7667451171875,1.1295949220657349,9.43378734588623,-7.756856441497803
1680996930443785700,4.77678564453125,1.414825201034546,9.772577285766602,-6.102537155151367
1680996930453826300,4.786826416015625,1.5204869508743286,9.5633544921875,-3.881265640258789
1680996930463867000,4.796866943359375,1.1614660024642944,10.432720184326172,-3.2107791900634766
1680996930473907500,4.806907470703125,-0.10563266277313232,12.079421043395996,-3.2052855491638184
1680996930483948000,4.816947998046875,-1.0517408847808838,13.925302505493164,-3.5924816131591797
1680996930493988600,4.826988525390625,-2.3088583946228027,14.408426284790039,-4.949463367462158
1680996930504029200,4.837029296875,-3.1980631351470947,13.785770416259766,-5.068037986755371
1680996930514069800,4.84706982421875,-4.490466117858887,12.919476509094238,-5.6018195152282715
1680996930524110300,4.8571103515625,-4.672567844390869,11.86794376373291,-6.1237640380859375
1680996930534151000,4.86715087890625,-6.305091857910156,10.633893013000488,-5.017658710479736
1680996930544191500,4.87719140625,-4.492417335510254,7.895852088928223,-2.8166394233703613
1680996930554232000,4.887232177734375,-5.8452534675598145,2.152914047241211,-4.4259114265441895
1680996930564272600,4.897272705078125,-1.9531000852584839,2.656757354736328,-4.460580825805664
1680996930574313000,4.90731298828125,-0.3487614393234253,-0.862299919128418,-6.802280902862549
1680996930584353500,4.917353515625,0.49990448355674744,-6.350033283233643,-5.444765090942383
1680996930594394000,4.92739404296875,2.37784481048584,-9.612051010131836,-2.5310449600219727
1680996930604434700,4.9374345703125,2.4680635929107666,-10.513874053955078,9.882675170898438
1680996930614475300,4.947475341796875,0.06646728515625,-12.295934677124023,16.486623764038086
1680996930624515800,4.957515869140625,-1.2105975151062012,-11.874002456665039,14.31590461730957
1680996930634556400,4.967556396484375,-3.8105764389038086,-14.250240325927734,11.370309829711914
1680996930644597000,4.977596923828125,-4.870848655700684,-15.580218315124512,7.234933376312256
1680996930654637600,4.987637451171875,-7.402914047241211,-15.82114028930664,3.089890956878662
1680996930664678100,4.99767822265625,-9.514408111572266,-14.191500663757324,0.9765133857727051
1680996930674718700,5.00771875,-9.716949462890625,-12.701476097106934,0.8021197319030762
1680996930684759300,5.01775927734375,-7.368350028991699,-11.747329711914062,2.5055770874023438
1680996930694800000,5.0277998046875,-7.0586419105529785,-11.203605651855469,3.2656383514404297
1680996930704840400,5.03784033203125,-7.450669765472412,-12.242817878723145,5.431460857391357
1680996930714881000,5.047881103515625,-6.605221271514893,-12.677684783935547,9.0518798828125
1680996930724921600,5.057921630859375,-3.603987693786621,-9.945664405822754,11.577088356018066
1680996930734962200,5.067962158203125,2.514317035675049,-5.999794006347656,9.226811408996582
1680996930745002800,5.078002685546875,4.226851940155029,-2.0150113105773926,1.8867583274841309
1680996930755043300,5.088043212890625,4.96893310546875,1.28802490234375,-3.436211585998535
1680996930765084000,5.098083984375,7.396635055541992,4.449296951293945,-4.9896039962768555
1680996930775124500,5.10812451171875,7.445290565490723,7.636109352111816,-4.142392158508301
1680996930785165000,5.1181650390625,5.447786331176758,11.567717552185059,-2.228740692138672
1680996930795205600,5.12820556640625,3.905909776687622,14.964749336242676,-1.1826152801513672
1680996930805246200,5.13824609375,5.232618808746338,17.249004364013672,-0.4068741798400879
1680996930815286800,5.148286865234375,6.978228569030762,18.541120529174805,0.09044790267944336
1680996930825327400,5.158327392578125,7.027729034423828,17.165260314941406,-1.580960750579834
1680996930835368000,5.168367919921875,6.502060890197754,14.308138847351074,-4.3119072914123535
1680996930845408500,5.178408447265625,6.09766149520874,11.608530044555664,-5.909693241119385
1680996930855449000,5.188448974609375,4.427929878234863,7.925457954406738,-7.91378116607666
1680996930865489700,5.19848974609375,2.875476837158203,6.050551891326904,-8.563199996948242
1680996930875530200,5.2085302734375,1.3007471561431885,5.610420227050781,-7.462721347808838
1680996930885570800,5.21857080078125,0.08484005928039551,4.809592247009277,-5.153511047363281
1680996930895611400,5.228611328125,-0.7530615329742432,1.767871379852295,-3.76269793510437
1680996930905652000,5.23865185546875,-1.64703369140625,-0.2356581687927246,-4.508928298950195
1680996930915692500,5.248692626953125,-0.7445909976959229,0.7180628776550293,-3.4998464584350586
1680996930925733000,5.258733154296875,-0.2509167194366455,-0.8324651718139648,-2.9880805015563965
1680996930935773700,5.268773681640625,0.09663009643554688,-2.364612579345703,-2.8006441593170166
1680996930945814300,5.278814208984375,1.5202840566635132,-3.885740280151367,-1.8767186403274536
1680996930955854800,5.288854736328125,4.03141975402832,-5.99155330657959,-1.5840539932250977
1680996930965895400,5.2988955078125,5.374129295349121,-10.430810928344727,-4.359529495239258
1680996930975936000,5.30893603515625,9.791196823120117,-12.04129695892334,-4.384685516357422
1680996930985976600,5.3189765625,11.933743476867676,-13.07928466796875,-7.47572660446167
1680996930996017200,5.32901708984375,11.602699279785156,-19.000749588012695,-3.4846978187561035
1680996931006057700,5.3390576171875,8.941004753112793,-20.515361785888672,-1.2027703523635864
1680996931016098300,5.349098388671875,4.453122615814209,-18.620155334472656,-1.847697138786316
1680996931026139000,5.359138916015625,-0.0002841949462890625,-16.76707649230957,-2.8009448051452637
1680996931036179500,5.369179443359375,-3.686279773712158,-17.994565963745117,-1.8893675804138184
1680996931046220000,5.379219970703125,-16.7933406829834,-15.106383323669434,1.9885454177856445
1680996931056260600,5.389260498046875,-19.997434616088867,-10.063167572021484,0.6317477226257324
1680996931066301000,5.399301025390625,-12.946932792663574,-7.832592010498047,-3.9714794158935547
1680996931076341500,5.409341552734375,-11.675559997558594,-5.526422500610352,-2.8871355056762695
1680996931086382000,5.419382080078125,-13.479837417602539,-4.93878173828125,-5.10853385925293
1680996931096422700,5.429422607421875,-11.278030395507812,-4.075373649597168,-4.858865261077881
1680996931106463200,5.439463134765625,-7.469228267669678,-1.8451805114746094,-3.2318496704101562
1680996931116503800,5.44950390625,-3.979036808013916,-0.21564102172851562,-1.9628978967666626
1680996931126544400,5.45954443359375,-1.027162790298462,2.8855838775634766,0.520352840423584
1680996931136585000,5.4695849609375,0.5421342849731445,10.44678783416748,5.509202003479004
1680996931146625500,5.47962548828125,2.913331985473633,8.631957054138184,2.2052221298217773
1680996931156666000,5.489666015625,2.359762191772461,4.814733028411865,-0.8465409278869629
1680996931166706700,5.499706787109375,1.1325526237487793,4.248899459838867,0.09246301651000977
1680996931176747300,5.509747314453125,0.1675371527671814,4.529491424560547,0.4217272996902466
1680996931186787800,5.519787841796875,-0.21102571487426758,5.647991180419922,0.618324875831604
1680996931196828400,5.529828369140625,-0.6292716264724731,7.164799690246582,0.23624932765960693
1680996931206869000,5.539868896484375,-0.48468148708343506,7.75434684753418,-0.5081871747970581
1680996931216909600,5.54990966796875,-0.8234922885894775,10.371804237365723,0.1667497754096985
1680996931226950100,5.5599501953125,-2.5038018226623535,11.671178817749023,-0.2940176725387573
1680996931236990700,5.56999072265625,-2.9004101753234863,10.871106147766113,0.043432772159576416
1680996931247031300,5.58003125,1.7861398458480835,10.854931831359863,-0.051976144313812256
1680996931257071900,5.59007177734375,4.950973033905029,10.260671615600586,0.09174865484237671
1680996931267112400,5.600112548828125,4.311982154846191,9.208508491516113,1.0348622798919678
1680996931277153000,5.610153076171875,4.372123718261719,7.624168872833252,0.2917785942554474
1680996931287193600,5.620193603515625,4.707167625427246,4.051072597503662,-0.7582598924636841
1680996931297234200,5.630234130859375,5.558288097381592,-0.6881752014160156,-1.55638587474823
1680996931307274800,5.640274658203125,0.32881152629852295,-5.16074275970459,-2.6903371810913086
1680996931317315300,5.6503154296875,-12.371076583862305,-13.0942964553833,-3.7038135528564453
1680996931327355600,5.660355712890625,-14.291966438293457,-17.556291580200195,-3.4999899864196777
1680996931337396200,5.670396240234375,-16.889421463012695,-17.097164154052734,-5.054652214050293
1680996931347436800,5.680436767578125,-16.739830017089844,-17.623138427734375,-6.255159378051758
1680996931357477400,5.690477294921875,-12.36005687713623,-19.48822021484375,-6.328874111175537
1680996931367518000,5.70051806640625,-7.09535026550293,-19.218219757080078,-4.719574928283691
1680996931377558500,5.71055859375,-3.161012649536133,-20.01400375366211,-4.876649856567383
1680996931387599000,5.72059912109375,-0.4649486541748047,-19.5650577545166,-3.4173593521118164
1680996931397639700,5.7306396484375,1.2272400856018066,-14.861958503723145,0.4528433084487915
1680996931407680300,5.74068017578125,2.5588459968566895,-8.481081008911133,4.079758167266846
1680996931417720800,5.750720947265625,4.003678321838379,-3.332974433898926,7.008081436157227
1680996931427761400,5.760761474609375,4.3176422119140625,0.9832935333251953,7.516966819763184
1680996931437802000,5.770802001953125,4.839874267578125,4.742890357971191,5.471093654632568
1680996931447842600,5.780842529296875,6.193811893463135,7.87322473526001,2.9284939765930176
1680996931457883100,5.790883056640625,8.156179428100586,10.624095916748047,1.4210543632507324
1680996931467923700,5.800923828125,10.589961051940918,12.492889404296875,2.0411813259124756
1680996931477964300,5.81096435546875,13.642657279968262,13.0694580078125,4.159049034118652
1680996931488004900,5.8210048828125,15.580479621887207,12.705135345458984,6.361783027648926
1680996931498045400,5.83104541015625,15.563180923461914,12.07133960723877,6.848504543304443
1680996931508086000,5.8410859375,13.75295639038086,11.302655220031738,6.354946613311768
1680996931518126600,5.851126708984375,10.58392333984375,10.511528968811035,5.036572456359863
1680996931528167200,5.861167236328125,8.195171356201172,10.018280029296875,4.327754974365234
1680996931538207700,5.871207763671875,6.174827575683594,9.736992835998535,3.8421316146850586
1680996931548248300,5.881248291015625,3.9489006996154785,9.21674919128418,3.4545207023620605
1680996931558289000,5.891288818359375,-22.367504119873047,4.34470272064209,-0.8172488212585449
1680996931568329200,5.9013291015625,-32.56072235107422,-3.318401336669922,-2.372741460800171
1680996931578369800,5.911369873046875,-27.146724700927734,-4.518522262573242,-0.006409347057342529
1680996931588410400,5.921410400390625,-12.577958106994629,0.4306163787841797,0.4234287142753601
1680996931598451000,5.931450927734375,11.941819190979004,7.553826808929443,-0.9702920913696289
1680996931608491500,5.941491455078125,12.982095718383789,7.636587142944336,-2.998291015625
1680996931618532000,5.951531982421875,14.247467041015625,5.930700302124023,-4.460269927978516
1680996931628572700,5.96157275390625,15.532811164855957,3.7759757041931152,-4.313540935516357
1680996931638613200,5.97161328125,17.444374084472656,-1.040726661682129,-6.726184368133545
1680996931648653800,5.98165380859375,16.828102111816406,-4.388557434082031,-8.133244514465332
1680996931658694400,5.9916943359375,15.294071197509766,-7.236076354980469,-8.583779335021973
1680996931668735000,6.00173486328125,12.303401947021484,-9.16706371307373,-9.033369064331055
1680996931678775600,6.011775634765625,8.99185562133789,-10.22596549987793,-7.991411209106445
1680996931688816000,6.021816162109375,6.518889427185059,-10.288389205932617,-6.531761169433594
1680996931698856700,6.031856689453125,4.210916519165039,-11.066010475158691,-5.1744384765625
1680996931708897300,6.041897216796875,3.8953089714050293,-13.312164306640625,-3.8337643146514893
1680996931718937900,6.051937744140625,2.073276996612549,-17.944034576416016,-2.3857040405273438
1680996931728978400,6.061978515625,-20.11635971069336,-24.327594757080078,6.590859889984131
1680996931739018800,6.072018798828125,-18.99811363220215,-22.860584259033203,9.58778190612793
1680996931749059300,6.082059326171875,-4.201525688171387,-18.774951934814453,5.809302806854248
1680996931759100000,6.092099853515625,-1.7038438320159912,-16.06138801574707,5.955409526824951
1680996931769140500,6.102140380859375,-2.098900318145752,-13.481707572937012,6.296882629394531
1680996931779181000,6.11218115234375,-7.905486106872559,-9.975954055786133,7.060527801513672
1680996931789221600,6.1222216796875,-15.837058067321777,-5.489043235778809,6.23481559753418
1680996931799262200,6.13226220703125,-16.074682235717773,-3.106882095336914,5.450351238250732
1680996931809302800,6.142302734375,-12.171958923339844,-3.1716833114624023,5.195699691772461
1680996931819343400,6.15234326171875,-7.476966857910156,-2.996434211730957,4.993195056915283
1680996931829384000,6.162384033203125,-4.390876293182373,-2.0399436950683594,4.588930606842041
1680996931839424500,6.172424560546875,-2.6345133781433105,-0.43988895416259766,4.609322547912598
1680996931849465000,6.182465087890625,-2.582871913909912,1.476912498474121,4.431105136871338
1680996931859505700,6.192505615234375,-2.7690439224243164,3.498779296875,4.385890960693359
1680996931869546200,6.202546142578125,-1.989264726638794,5.130124092102051,4.168234825134277
1680996931879586800,6.2125869140625,-0.9537424445152283,6.445695400238037,3.8279974460601807
1680996931889627100,6.222627197265625,-0.3953595757484436,7.713483810424805,3.2629380226135254
1680996931899667700,6.232667724609375,0.03729057312011719,9.015106201171875,2.4847781658172607
1680996931909708300,6.242708251953125,0.29222095012664795,10.036093711853027,1.6767994165420532
1680996931919748900,6.252748779296875,0.2111140489578247,10.437387466430664,0.68801349401474
1680996931929789400,6.26278955078125,-0.23696410655975342,10.455134391784668,0.26592475175857544
1680996931939830000,6.272830078125,-0.40588173270225525,10.754744529724121,-0.045808225870132446
1680996931949870600,6.28287060546875,-0.30150505900382996,10.838656425476074,-0.3254954516887665
1680996931959911200,6.2929111328125,0.23909449577331543,11.203457832336426,-0.56866055727005
1680996931969951700,6.30295166015625,0.9127964973449707,12.0794038772583,-0.8791548013687134
1680996931979992300,6.312992431640625,1.4634466171264648,13.10612964630127,-0.9210374355316162
1680996931990033000,6.323032958984375,1.8707307577133179,13.424529075622559,-1.1263105869293213
1680996932000073500,6.333073486328125,1.837767481803894,12.360933303833008,-1.0489087104797363
1680996932010114000,6.343114013671875,1.831059455871582,10.800171852111816,-1.3268648386001587
1680996932020154600,6.353154541015625,1.9045426845550537,9.554685592651367,-1.3742117881774902
1680996932030195000,6.36319482421875,2.289231300354004,8.58477783203125,-1.5437994003295898
1680996932040235500,6.373235595703125,3.278824806213379,7.430352687835693,-1.9351963996887207
1680996932050276000,6.383276123046875,4.002751350402832,4.837173938751221,-2.2801260948181152
1680996932060316700,6.393316650390625,-6.289425849914551,-4.63308048248291,-0.6783937215805054
1680996932070357200,6.403357177734375,-13.885943412780762,-14.703866958618164,1.405142068862915
1680996932080397800,6.413397705078125,-16.42176628112793,-38.80887222290039,9.427518844604492
1680996932090438400,6.4234384765625,-21.757030487060547,-67.68035888671875,13.507351875305176
1680996932100479000,6.43347900390625,-7.686039924621582,-59.25617980957031,9.867555618286133
1680996932110519600,6.44351953125,-5.350939750671387,-37.98011779785156,10.303308486938477
1680996932120560000,6.45356005859375,-4.99847412109375,-15.697990417480469,10.1497802734375
1680996932130600700,6.4636005859375,-2.414665460586548,-3.9983510971069336,5.889532566070557
1680996932140641300,6.473641357421875,1.4938719272613525,1.9809389114379883,2.515329360961914
1680996932150681600,6.483681640625,4.675177574157715,5.315401077270508,0.008887290954589844
1680996932160722200,6.49372216796875,6.365049362182617,7.234400749206543,-2.7397568225860596
1680996932170762800,6.5037626953125,7.481675148010254,8.226582527160645,-4.924110412597656
1680996932180803300,6.51380322265625,7.85222053527832,8.729713439941406,-6.246596336364746
1680996932190844000,6.523843994140625,7.936131477355957,9.401068687438965,-6.429603576660156
1680996932200884500,6.533884521484375,8.174333572387695,9.60107707977295,-5.733977317810059
1680996932210925000,6.543925048828125,7.773199081420898,9.624330520629883,-4.7038164138793945
1680996932220965600,6.553965576171875,7.810268878936768,9.987890243530273,-4.623879909515381
1680996932231006200,6.564006103515625,7.265038013458252,10.173192977905273,-4.881689071655273
1680996932241046800,6.574046875,6.036399841308594,10.094324111938477,-4.94461727142334
1680996932251087400,6.58408740234375,4.680289268493652,10.339103698730469,-4.869880676269531
1680996932261127700,6.594127685546875,3.567923069000244,11.11436939239502,-4.6933488845825195
1680996932271168300,6.604168212890625,2.6770691871643066,12.063666343688965,-4.382493019104004
1680996932281208800,6.614208740234375,1.6696025133132935,12.248743057250977,-3.8119289875030518
1680996932291249400,6.62424951171875,-0.4457883834838867,11.859712600708008,-3.432011127471924
1680996932301290000,6.6342900390625,-12.385679244995117,9.066713333129883,-1.688399076461792
1680996932311330600,6.64433056640625,-14.079005241394043,7.015375137329102,-0.9635524749755859
1680996932321371100,6.65437109375,-4.940423011779785,6.989845275878906,-2.2522177696228027
1680996932331411700,6.66441162109375,2.3295955657958984,8.184998512268066,-4.1667256355285645
1680996932341452300,6.674452392578125,4.073854446411133,7.49668550491333,-4.62900447845459
1680996932351492900,6.684492919921875,4.039141654968262,6.715592384338379,-5.495451927185059
1680996932361533400,6.694533447265625,3.7174458503723145,5.526261329650879,-6.305290222167969
1680996932371574000,6.704573974609375,4.9214067459106445,3.560368537902832,-7.162761688232422
1680996932381614300,6.7146142578125,4.493276596069336,3.3941073417663574,-8.450748443603516
1680996932391655000,6.724655029296875,4.958788871765137,2.686091899871826,-9.667999267578125
1680996932401695500,6.734695556640625,6.063277244567871,0.393129825592041,-9.997962951660156
1680996932411736000,6.744736083984375,8.673236846923828,-4.509631156921387,-8.73215103149414
1680996932421776600,6.754776611328125,11.86764907836914,-10.712657928466797,-4.66456413269043
1680996932431817200,6.764817138671875,16.456689834594727,-21.208965301513672,-0.4506349563598633
1680996932441857800,6.77485791015625,15.795127868652344,-29.870309829711914,4.061892986297607
1680996932451898400,6.7848984375,13.257943153381348,-28.517114639282227,8.278450965881348
1680996932461939000,6.79493896484375,8.307147979736328,-27.0452880859375,14.378071784973145
1680996932471979300,6.804979248046875,-4.011046409606934,-26.52863311767578,23.447776794433594
1680996932482019800,6.815019775390625,-26.009199142456055,-24.712142944335938,31.974231719970703
1680996932492060400,6.825060302734375,-25.459339141845703,-14.79743766784668,23.617755889892578
1680996932502101000,6.83510107421875,-17.391380310058594,-8.080458641052246,13.045310020446777
1680996932512141600,6.8451416015625,-11.860544204711914,-5.069035530090332,9.218865394592285
1680996932522182100,6.85518212890625,-10.631174087524414,-1.9352102279663086,6.640867710113525
1680996932532222700,6.86522265625,-9.12885856628418,-0.08229351043701172,4.31387186050415
1680996932542263300,6.87526318359375,-5.0755815505981445,1.2598748207092285,2.8199634552001953
1680996932552303900,6.885303955078125,-2.866835594177246,2.909280300140381,1.9529519081115723
1680996932562344200,6.89534423828125,-3.0777621269226074,4.844753265380859,0.5594148635864258
1680996932572384800,6.905384765625,-2.722285747528076,6.591876029968262,-0.7468562126159668
1680996932582425300,6.91542529296875,-1.2621023654937744,7.416625499725342,-1.2890689373016357
1680996932592466000,6.9254658203125,-0.42440593242645264,8.083284378051758,-2.4089581966400146
1680996932602506500,6.935506591796875,0.1840972900390625,8.630959510803223,-3.7192001342773438
1680996932612547000,6.945547119140625,0.161246657371521,8.975994110107422,-4.552870750427246
1680996932622587600,6.955587646484375,0.04699254035949707,9.03682804107666,-5.738480091094971
1680996932632628200,6.965628173828125,-0.47372251749038696,8.910968780517578,-6.105810165405273
1680996932642668800,6.975668701171875,-0.7826973795890808,8.920778274536133,-6.125787734985352
1680996932652709400,6.98570947265625,-1.1276661157608032,9.07404613494873,-6.286455154418945
1680996932662749700,6.995749755859375,-1.0057101249694824,9.318480491638184,-6.497450351715088
1680996932672790300,7.005790283203125,-0.07607457041740417,11.246342658996582,-6.85206413269043
1680996932682830800,7.015830810546875,1.2636150121688843,11.411791801452637,-7.49153995513916
1680996932692871400,7.025871337890625,2.9506490230560303,10.110918045043945,-8.313249588012695
1680996932702912000,7.035912109375,3.135941982269287,9.334659576416016,-7.521671772003174
1680996932712952600,7.04595263671875,3.5536065101623535,8.662495613098145,-6.456181049346924
1680996932722993200,7.0559931640625,3.5073046684265137,7.110782623291016,-5.205723762512207
1680996932733033700,7.06603369140625,3.5377659797668457,6.229087829589844,-4.820315837860107
1680996932743074000,7.076073974609375,3.3578178882598877,5.779665470123291,-4.771039009094238
1680996932753114600,7.086114501953125,-8.755385398864746,0.8314323425292969,-1.503319263458252
1680996932763155200,7.0961552734375,-19.089111328125,-8.846902847290039,0.8307619094848633
1680996932773195800,7.10619580078125,-17.659149169921875,-21.47257423400879,4.69105863571167
1680996932783236400,7.116236328125,-11.441290855407715,-43.642234802246094,28.188343048095703
1680996932793277000,7.12627685546875,-1.169684886932373,-53.66045379638672,47.84477615356445
1680996932803317500,7.1363173828125,-3.1538970470428467,-45.33979034423828,39.81666564941406
1680996932813358000,7.146358154296875,-4.862524032592773,-19.269195556640625,14.495137214660645
1680996932823398700,7.156398681640625,-1.3297464847564697,-6.451207160949707,5.7095046043396
1680996932833439000,7.16643896484375,2.0959811210632324,-0.5913596153259277,1.4774832725524902
1680996932843479600,7.1764794921875,3.8488690853118896,2.1817078590393066,-2.0215511322021484
1680996932853520100,7.18652001953125,5.475927829742432,3.845287561416626,-4.431529998779297
1680996932863560700,7.196560791015625,6.923802375793457,5.099483489990234,-5.7184038162231445
1680996932873601300,7.206601318359375,7.629354953765869,6.090827465057373,-6.271002769470215
1680996932883641900,7.216641845703125,8.370244979858398,6.9527587890625,-6.826034069061279
1680996932893682400,7.226682373046875,9.078524589538574,7.990076065063477,-7.224240303039551
1680996932903722800,7.23672265625,9.483991622924805,8.958719253540039,-6.783047676086426
1680996932913763300,7.246763427734375,9.28852653503418,9.902972221374512,-6.286147594451904
1680996932923804000,7.256803955078125,9.596166610717773,10.70649528503418,-5.597531795501709
1680996932933844500,7.266844482421875,9.677000045776367,11.506231307983398,-5.264130115509033
1680996932943885000,7.276885009765625,9.000239372253418,12.095199584960938,-4.980907917022705
1680996932953925600,7.286925537109375,7.516503810882568,12.406310081481934,-5.2352776527404785
1680996932963966200,7.29696630859375,5.681317329406738,12.603015899658203,-5.425017833709717
1680996932974006500,7.307006591796875,4.085990905761719,12.213619232177734,-5.376293182373047
1680996932984047000,7.317047119140625,2.562857151031494,11.716645240783691,-5.410884380340576
1680996932994087700,7.327087646484375,1.1673834323883057,11.06509780883789,-5.624170780181885
1680996933004128300,7.337128173828125,-24.3018798828125,6.12899112701416,-5.085208415985107
1680996933014168800,7.3471689453125,-20.733949661254883,1.8809833526611328,-4.013460159301758
1680996933024209400,7.35720947265625,-0.5522570610046387,6.770323276519775,-6.272484302520752
1680996933034250000,7.36725,4.523373603820801,7.0983381271362305,-7.57289981842041
1680996933044290300,7.377290283203125,6.279271125793457,5.896417617797852,-8.811748504638672
1680996933054331000,7.387330810546875,5.839966773986816,4.663974285125732,-8.546143531799316
1680996933064371500,7.397371337890625,5.433792591094971,2.603097438812256,-9.466999053955078
1680996933074412000,7.407412109375,5.7561140060424805,-0.6570377349853516,-10.872495651245117
1680996933084452600,7.41745263671875,7.53196907043457,-5.621267795562744,-12.318492889404297
1680996933094493200,7.4274931640625,13.803269386291504,-11.642583847045898,-12.408012390136719
1680996933104533800,7.43753369140625,19.961666107177734,-20.338708877563477,-8.378110885620117
1680996933114574000,7.447573974609375,23.38503074645996,-25.56317710876465,-2.1122188568115234
1680996933124614700,7.45761474609375,19.88599395751953,-29.761707305908203,8.707988739013672
1680996933134655200,7.4676552734375,14.735251426696777,-29.378299713134766,14.404610633850098
1680996933144695800,7.47769580078125,8.975473403930664,-28.04397964477539,17.618314743041992
1680996933154736400,7.487736328125,-8.785506248474121,-27.37590980529785,22.843568801879883
1680996933164777000,7.49777685546875,-35.224647521972656,-21.00655746459961,27.331043243408203
1680996933174817500,7.507817626953125,-17.472158432006836,-13.278121948242188,18.5054874420166
1680996933184857900,7.51785791015625,-7.529204368591309,-7.992678642272949,11.885677337646484
1680996933194898400,7.5278984375,-9.95312213897705,-3.4212684631347656,6.870205402374268
1680996933204939000,7.53793896484375,-13.751123428344727,-0.39679622650146484,2.8248071670532227
1680996933214979600,7.5479794921875,-13.835794448852539,1.067732334136963,0.9184260368347168
1680996933225020200,7.558020263671875,-10.578664779663086,0.9915409088134766,0.8694858551025391
1680996933235060700,7.568060791015625,-7.652090072631836,1.0251736640930176,1.1892614364624023
1680996933245101300,7.578101318359375,-6.565345764160156,1.9271159172058105,0.7907743453979492
1680996933255141600,7.5881416015625,-7.697525501251221,3.919524669647217,-0.6933779716491699
1680996933265182200,7.59818212890625,-7.532175064086914,5.793249130249023,-1.7928352355957031
1680996933275222800,7.608222900390625,-3.4297261238098145,6.6806511878967285,-1.5118587017059326
1680996933285263400,7.618263427734375,-0.32924437522888184,6.985148906707764,-1.5438592433929443
1680996933295304000,7.628303955078125,0.7455074787139893,7.504475116729736,-2.2241296768188477
1680996933305344500,7.638344482421875,1.0468394756317139,7.943811416625977,-2.960299253463745
1680996933315384800,7.648384765625,0.9558451175689697,8.74927806854248,-3.8700265884399414
1680996933325425400,7.65842529296875,0.9157267212867737,9.362192153930664,-4.881402015686035
1680996933335466000,7.668466064453125,0.591559648513794,9.635052680969238,-5.7097344398498535
1680996933345506600,7.678506591796875,0.6858701705932617,9.994571685791016,-6.005575180053711
1680996933355547100,7.688547119140625,1.0969090461730957,10.529151916503906,-6.272525787353516
1680996933365587700,7.698587646484375,1.6120998859405518,11.064316749572754,-6.5365190505981445
1680996933375628300,7.708628173828125,2.0484893321990967,11.279199600219727,-6.8517913818359375
1680996933385668600,7.718668701171875,2.345888614654541,11.32023811340332,-7.1297760009765625
1680996933395709200,7.728709228515625,2.3816967010498047,11.304931640625,-6.8231706619262695
1680996933405749800,7.738749755859375,2.1773979663848877,10.20907211303711,-5.838197231292725
1680996933415790300,7.748790283203125,2.0788519382476807,8.838537216186523,-5.7090253829956055
1680996933425831000,7.758830810546875,1.8646080493927002,7.867619037628174,-5.588103294372559
1680996933435871200,7.768871337890625,-2.860313892364502,6.065710544586182,-3.995295286178589
1680996933445911800,7.778911865234375,-20.046640396118164,-2.2529401779174805,1.9337959289550781
1680996933455952400,7.788952392578125,-13.419212341308594,-12.471025466918945,-0.48054981231689453
1680996933465993000,7.798992919921875,-7.526568412780762,-27.082176208496094,-2.726961851119995
1680996933476033500,7.809033447265625,0.2723582983016968,-45.76649475097656,18.636577606201172
1680996933486074000,7.81907421875,-4.9892377853393555,-59.51927947998047,49.35747528076172
1680996933496114700,7.82911474609375,-8.813729286193848,-49.08330535888672,36.93578338623047
1680996933506155000,7.839155029296875,-8.507100105285645,-21.89516830444336,6.5196075439453125
1680996933516195600,7.849195556640625,-1.733458161354065,-8.498360633850098,1.0095810890197754
1680996933526236200,7.859236083984375,2.2675421237945557,-1.7171411514282227,-0.6355366706848145
1680996933536276700,7.86927685546875,3.278994560241699,2.4021549224853516,-2.80293869972229
1680996933546317300,7.8793173828125,4.188692569732666,4.438344478607178,-4.169628143310547
1680996933556357600,7.889357666015625,5.6625800132751465,5.51352596282959,-4.691150188446045
1680996933566398200,7.899398193359375,7.522826671600342,6.388216495513916,-5.322936058044434
1680996933576438800,7.909438720703125,8.489385604858398,6.931748390197754,-5.7331061363220215
1680996933586479400,7.919479248046875,9.214333534240723,7.7785797119140625,-6.594999313354492
1680996933596520000,7.92952001953125,8.990954399108887,8.499443054199219,-6.913727760314941
1680996933606560500,7.939560546875,8.334851264953613,9.225811958312988,-6.759982585906982
1680996933616600800,7.949600830078125,7.70489501953125,9.878971099853516,-5.934307098388672
1680996933626641400,7.959641357421875,8.443929672241211,10.678237915039062,-5.312634468078613
1680996933636682000,7.969681884765625,8.505962371826172,11.671000480651855,-5.125311851501465
1680996933646722600,7.97972265625,6.8830976486206055,12.137807846069336,-4.881594181060791
1680996933656763100,7.98976318359375,4.781094551086426,12.302839279174805,-4.610360145568848
1680996933666803500,7.999803466796875,3.1417088508605957,12.181917190551758,-4.189784049987793
1680996933676844000,8.009843994140626,1.268392562866211,11.924822807312012,-4.023678302764893
1680996933686884600,8.019884521484375,-2.1346054077148438,11.008753776550293,-3.115924119949341
1680996933696925200,8.02992529296875,-41.167877197265625,0.8815345764160156,7.205977916717529
1680996933706965800,8.0399658203125,-22.256000518798828,-0.3866915702819824,1.7407946586608887
1680996933717006000,8.050006103515624,6.046745300292969,6.396212577819824,-5.65950870513916
1680996933727046700,8.060046630859375,8.300894737243652,6.112788677215576,-7.267624855041504
1680996933737087200,8.070087158203124,9.591667175292969,5.28171443939209,-8.344820976257324
1680996933747127800,8.0801279296875,8.177562713623047,3.737447500228882,-10.412464141845703
1680996933757168400,8.09016845703125,6.9825334548950195,2.115302562713623,-12.434890747070312
1680996933767209000,8.100208984375,6.365767955780029,0.14776611328125,-14.713905334472656
1680996933777249300,8.110249267578125,6.408053874969482,-2.3635964393615723,-17.18073272705078
1680996933787289900,8.120289794921876,7.2119855880737305,-6.939699649810791,-18.40418243408203
1680996933797330400,8.130330322265625,9.554347038269043,-16.551280975341797,-16.013214111328125
1680996933807371000,8.14037109375,12.767406463623047,-28.23006820678711,-6.448716640472412
1680996933817411600,8.15041162109375,19.66366958618164,-37.692840576171875,8.213781356811523
1680996933827452000,8.160451904296876,19.58318519592285,-41.526554107666016,20.07546615600586
1680996933837492500,8.170492431640625,13.085014343261719,-43.454498291015625,26.604373931884766
1680996933847533000,8.180532958984376,8.141946792602539,-31.63837242126465,22.707080841064453
1680996933857573600,8.19057373046875,-16.2928409576416,-25.087142944335938,14.865306854248047
1680996933867614200,8.2006142578125,-59.480201721191406,-12.698745727539062,-1.7355620861053467
1680996933877654500,8.210654541015625,-32.280738830566406,-11.530996322631836,2.654057741165161
1680996933887695000,8.220695068359374,-15.497225761413574,-9.13916301727295,4.796609878540039
1680996933897735700,8.230735595703125,-10.343086242675781,-6.30379581451416,3.652322292327881
1680996933907776300,8.2407763671875,-7.273251056671143,-3.0512657165527344,2.6957314014434814
1680996933917816800,8.25081689453125,-5.207927703857422,0.36153221130371094,1.031747579574585
1680996933927857200,8.260857177734374,-4.474946022033691,3.3519577980041504,-0.5048408508300781
1680996933937897700,8.270897705078125,-3.339531421661377,5.656864166259766,-1.8571090698242188
1680996933947938300,8.280938232421875,-3.216733455657959,7.325005054473877,-2.303250789642334
1680996933957979000,8.290978759765625,-0.25957274436950684,8.737072944641113,-3.7942752838134766
1680996933968019500,8.30101953125,3.108555793762207,10.001585960388184,-5.308306694030762
1680996933978059800,8.311059814453126,5.885432243347168,11.71347427368164,-6.770620346069336
1680996933988100400,8.321100341796875,6.069697380065918,12.342403411865234,-8.098901748657227
1680996933998141000,8.331140869140626,3.816413402557373,11.875289916992188,-6.877444267272949
1680996934008181500,8.341181396484375,1.385969877243042,11.932209014892578,-5.734936237335205
1680996934018222000,8.35122216796875,0.05069321393966675,12.366661071777344,-4.683376789093018
1680996934028262400,8.361262451171875,-1.020383596420288,12.371058464050293,-3.5613391399383545
1680996934038303000,8.371302978515626,-0.9149550199508667,13.216588973999023,-3.546279191970825
1680996934048343600,8.381343505859375,-0.38436949253082275,14.665240287780762,-4.219069004058838
1680996934058384100,8.391384033203124,1.4116803407669067,15.572458267211914,-5.640182971954346
1680996934068424400,8.401424560546875,3.4930129051208496,16.600584030151367,-7.792229652404785
1680996934078465000,8.411465087890624,4.8237738609313965,16.050222396850586,-8.614300727844238
1680996934088505600,8.421505615234375,4.51421594619751,13.586137771606445,-8.360690116882324
1680996934098546200,8.431546142578124,3.9057257175445557,10.762641906738281,-6.8627214431762695
1680996934108586800,8.441586669921875,2.363147735595703,8.439209938049316,-5.970492839813232
1680996934118627000,8.451626953125,1.7512171268463135,7.018808841705322,-5.954661846160889
1680996934128667600,8.461667724609375,1.7171790599822998,5.910768508911133,-5.871581077575684
1680996934138708200,8.471708251953125,1.4176088571548462,5.218282222747803,-5.6135454177856445
1680996934148748800,8.481748779296876,-9.334173202514648,-5.487532138824463,2.2538318634033203
1680996934158789400,8.491789306640625,-32.52932357788086,-37.18227767944336,22.63581657409668
1680996934168829700,8.50182958984375,-29.073251724243164,-37.64691162109375,22.793149948120117
1680996934178870300,8.511870361328125,-21.73874855041504,-29.36429214477539,18.68252182006836
1680996934188910800,8.521910888671876,-12.605389595031738,-28.499013900756836,14.845998764038086
1680996934198951400,8.531951416015625,-4.1883697509765625,-28.145071029663086,11.603446960449219
1680996934208991700,8.54199169921875,0.9958529472351074,-21.885820388793945,5.8579301834106445
1680996934219032300,8.5520322265625,5.158254146575928,-14.98453140258789,-0.6104416847229004
1680996934229073000,8.562072998046874,6.935681343078613,-9.802322387695312,-6.641722679138184
1680996934239113500,8.572113525390625,7.334721565246582,-5.255463600158691,-9.90411376953125
1680996934249153800,8.58215380859375,7.645318984985352,-1.4884672164916992,-10.4102144241333
1680996934259194400,8.5921943359375,7.469534873962402,1.7294535636901855,-9.496206283569336
1680996934269235000,8.60223486328125,6.862995624542236,4.159637451171875,-8.225369453430176
1680996934279275500,8.612275634765625,6.945010185241699,6.229982852935791,-7.156072616577148
1680996934289316000,8.622316162109374,8.20995044708252,7.985410213470459,-6.295805931091309
1680996934299356400,8.6323564453125,9.132059097290039,9.373039245605469,-5.976260185241699
1680996934309397000,8.64239697265625,9.076022148132324,10.357542037963867,-5.797990322113037
1680996934319437600,8.6524375,7.74955415725708,11.103816032409668,-4.4139838218688965
1680996934329478100,8.66247802734375,4.620794296264648,10.605323791503906,-3.1174330711364746
1680996934339518500,8.6725185546875,2.708554983139038,10.42837142944336,-2.3702125549316406
1680996934349559000,8.68255908203125,1.5900747776031494,10.32977294921875,-1.766611099243164
1680996934359599600,8.692599609375,0.7023460865020752,10.312017440795898,-1.2159401178359985
1680996934369640200,8.70264013671875,-0.4097479581832886,10.576601028442383,-0.8005373477935791
1680996934379680500,8.712680419921876,-2.880737781524658,10.559406280517578,0.20973658561706543
1680996934389721000,8.72272119140625,-28.718807220458984,7.428737163543701,9.271074295043945
1680996934399761700,8.73276171875,-20.282011032104492,6.214486598968506,7.8452839851379395
1680996934409802200,8.74280224609375,-10.18124771118164,7.782392501831055,0.5166082382202148
1680996934419842800,8.7528427734375,-3.384981870651245,10.507152557373047,-4.022361755371094
1680996934429883100,8.762883056640625,2.0731825828552246,11.369584083557129,-5.008264064788818
1680996934439923700,8.772923828125,4.074282646179199,10.099967956542969,-3.5955843925476074
1680996934449964300,8.78296435546875,2.9639346599578857,8.442460060119629,-3.7624874114990234
1680996934460004600,8.793004638671874,2.9638147354125977,8.379650115966797,-4.000001907348633
1680996934470045200,8.803045166015625,3.6895012855529785,7.781617164611816,-4.477898597717285
1680996934480085800,8.813085693359374,6.728964805603027,6.4936065673828125,-4.720643043518066
1680996934490126300,8.823126220703125,11.489274978637695,2.9278364181518555,-6.149529933929443
1680996934500166700,8.833166748046875,13.835624694824219,-6.353399276733398,-6.602578163146973
1680996934510207200,8.843207275390625,12.973245620727539,-23.73480224609375,-8.073195457458496
1680996934520247800,8.853247802734375,13.633357048034668,-50.35673522949219,-10.262727737426758
1680996934530288400,8.863288330078126,7.3463873863220215,-66.7384033203125,-10.95413589477539
1680996934540329000,8.873328857421875,2.0718977451324463,-51.735660552978516,-1.3282485008239746
1680996934550369300,8.883369384765626,1.6169580221176147,-30.010839462280273,3.0001392364501953
1680996934560409900,8.893409912109375,2.9886634349823,-15.756124496459961,5.619749546051025
1680996934570450400,8.903450439453126,-3.996685028076172,-10.747880935668945,4.816511154174805
1680996934580490800,8.91349072265625,-21.520605087280273,-5.601367950439453,2.855947971343994
1680996934590531300,8.92353125,-33.49773025512695,0.36016368865966797,-2.388516426086426
1680996934600572000,8.933572021484375,-34.421226501464844,4.603035926818848,-8.961332321166992
1680996934610612500,8.943612548828124,-20.86624526977539,2.33267879486084,-8.680229187011719
1680996934620652800,8.95365283203125,-15.411396026611328,1.0503921508789062,-6.120751857757568
1680996934630693400,8.963693359375,-8.560126304626465,0.11591815948486328,-4.307807922363281
1680996934640734000,8.97373388671875,-2.8100526332855225,0.21555709838867188,-3.1893980503082275
1680996934650774500,8.9837744140625,-1.0614486932754517,1.8426103591918945,-1.9700393676757812
1680996934660814800,8.99381494140625,-1.8070483207702637,3.159679412841797,-1.1904151439666748
1680996934670855400,9.00385546875,-1.4812425374984741,4.386845111846924,-0.6505836844444275
1680996934680896000,9.01389599609375,-1.0571203231811523,5.791858673095703,-0.2797515392303467
1680996934690936600,9.0239365234375,-0.8516011238098145,7.293156623840332,0.017890512943267822
1680996934700977000,9.033976806640625,-0.3433743715286255,8.780068397521973,-0.2591150999069214
1680996934711017500,9.044017578125,0.2923123836517334,9.992986679077148,-1.1016881465911865
1680996934721058000,9.05405810546875,0.5456588268280029,10.94693660736084,-1.5604406595230103
1680996934731098600,9.0640986328125,1.2769767045974731,11.750510215759277,-2.0871024131774902
1680996934741139000,9.074138916015626,1.8267016410827637,12.239937782287598,-2.6406195163726807
1680996934751179500,9.084179443359375,1.7695238590240479,12.371517181396484,-2.6310014724731445
1680996934761220000,9.09422021484375,1.8985633850097656,12.86529541015625,-2.7925758361816406
1680996934771260700,9.1042607421875,2.2942299842834473,15.038081169128418,-2.224255323410034
1680996934781301000,9.114301025390626,3.1415212154388428,27.325769424438477,2.117581844329834
1680996934791341600,9.124341552734375,4.469156742095947,15.450201034545898,-4.406194686889648
1680996934801382100,9.134382080078124,2.801455497741699,10.09418773651123,-4.67791223526001
1680996934811422700,9.144422607421875,2.2405917644500732,8.509401321411133,-3.8788838386535645
1680996934821463000,9.154463134765624,2.4091413021087646,7.748161792755127,-3.918062210083008
1680996934831503600,9.164503662109375,2.786818504333496,7.1756672859191895,-4.166446685791016
1680996934841544200,9.174544189453124,4.6349639892578125,5.278169631958008,-4.959963798522949
1680996934851584500,9.18458447265625,4.303868293762207,-1.2004079818725586,-6.521588325500488
1680996934861625000,9.194625,-5.4297966957092285,-25.993696212768555,-7.992953300476074
1680996934871665700,9.204665771484375,-44.277400970458984,-66.31852722167969,-1.9398438930511475
1680996934881706000,9.2147060546875,-42.88513946533203,-69.34859466552734,17.55084991455078
1680996934891746600,9.22474658203125,-15.459854125976562,-59.194252014160156,2.9261813163757324
1680996934901787100,9.234787109375,-9.276683807373047,-25.917476654052734,0.17059659957885742
1680996934911827700,9.24482763671875,-5.7544169425964355,-9.309544563293457,3.2377209663391113
1680996934921868000,9.254867919921875,-1.1117453575134277,-2.5454235076904297,2.8901238441467285
1680996934931908600,9.26490869140625,2.042910099029541,1.7441320419311523,0.7826766967773438
1680996934941949200,9.27494921875,5.967818260192871,4.399900913238525,-1.4407027959823608
1680996934951989500,9.284989501953126,7.707335472106934,5.615797996520996,-3.6742610931396484
1680996934962030000,9.295030029296875,8.6839599609375,6.406545639038086,-5.023898124694824
1680996934972070700,9.305070556640626,9.175576210021973,7.369848251342773,-5.535732269287109
1680996934982111200,9.315111328125,9.875886917114258,9.117892265319824,-4.99656867980957
1680996934992151600,9.325151611328126,13.462650299072266,11.82038688659668,-4.030525207519531
1680996935002192100,9.335192138671875,12.517394065856934,12.246625900268555,-4.663869857788086
1680996935012232700,9.345232666015624,10.769448280334473,11.68509578704834,-5.777929306030273
1680996935022273300,9.355273193359375,11.295709609985352,13.029071807861328,-4.836242198944092
1680996935032313600,9.365313720703124,9.379636764526367,16.96128273010254,-4.0024213790893555
1680996935042354200,9.375354248046875,7.635500431060791,14.074209213256836,-2.4703707695007324
1680996935052394500,9.38539453125,4.928313255310059,12.53169059753418,-2.443424940109253
1680996935062435000,9.39543505859375,3.6748671531677246,11.953054428100586,-2.429298162460327
1680996935072475600,9.4054755859375,2.5649797916412354,11.639281272888184,-2.4642319679260254
1680996935082516200,9.41551611328125,1.9562702178955078,11.878498077392578,-2.7739858627319336
1680996935092556500,9.425556640625,0.9400148391723633,12.800806045532227,-3.3400778770446777
1680996935102597000,9.43559716796875,-44.355167388916016,2.4510159492492676,6.147074222564697
1680996935112637700,9.4456376953125,-11.196261405944824,6.380461692810059,-2.0101494789123535
1680996935122678300,9.45567822265625,2.5259499549865723,7.415849208831787,-4.0274529457092285
1680996935132718600,9.465718505859375,5.6681623458862305,8.539223670959473,-5.680659294128418
1680996935142759200,9.47575927734375,-3.4199137687683105,5.838029384613037,-10.68882942199707
1680996935152799700,9.4857998046875,-1.440304160118103,0.05129718780517578,-11.175102233886719
1680996935162840000,9.495840087890626,1.465447187423706,-0.6191329956054688,-7.9996185302734375
1680996935172880600,9.505880615234375,5.428191184997559,1.047959804534912,-6.489876747131348
1680996935182921200,9.515921142578126,11.843040466308594,1.1061882972717285,-6.673801422119141
1680996935192961500,9.52596142578125,16.839242935180664,-3.151890754699707,-7.724994659423828
1680996935203002000,9.536002197265624,15.8966703414917,-11.140290260314941,-11.26003646850586
1680996935213042700,9.546042724609375,14.053524017333984,-20.02518081665039,-11.149913787841797
1680996935223083000,9.5560830078125,11.989203453063965,-26.56905746459961,-7.685190200805664
1680996935233123600,9.56612353515625,6.6887078285217285,-32.455692291259766,-5.768296241760254
1680996935243164200,9.5761640625,3.4063186645507812,-35.109249114990234,-4.928152084350586
1680996935253204700,9.586204833984375,0.5895088911056519,-32.44260025024414,-0.5887664556503296
1680996935263245000,9.5962451171875,-3.6727805137634277,-24.61806869506836,2.5257205963134766
1680996935273285600,9.60628564453125,-27.855731964111328,-14.778706550598145,10.963939666748047
1680996935283326200,9.616326171875,-22.688766479492188,-9.142640113830566,6.820226669311523
1680996935293366500,9.626366455078125,-16.485931396484375,-5.907052993774414,2.1595582962036133
1680996935303407000,9.636406982421875,-14.068324089050293,-3.956308364868164,-1.0887830257415771
1680996935313447700,9.64644775390625,-12.987116813659668,-2.8399972915649414,-2.522132635116577
1680996935323488000,9.656488037109375,-9.646051406860352,-2.9339513778686523,-1.7989461421966553
1680996935333528600,9.666528564453126,-6.845701217651367,-2.16873836517334,-0.1883520632982254
1680996935343569200,9.676569091796875,-6.313532829284668,0.5670385360717773,0.7277205586433411
1680996935353609500,9.686609375,-6.796700954437256,3.4394121170043945,0.9884032011032104
1680996935363650000,9.696650146484375,-5.707511901855469,6.267309188842773,1.707977294921875
1680996935373690600,9.706690673828126,-2.9463613033294678,6.601038932800293,1.6347037553787231
1680996935383731200,9.716731201171875,-1.1366918087005615,6.443416595458984,0.9316135048866272
1680996935393771500,9.726771484375,-0.5499392747879028,7.562398433685303,0.6917281746864319
1680996935403812000,9.73681201171875,-0.10213398933410645,8.618607521057129,-0.020192384719848633
1680996935413852400,9.746852294921876,0.6335052251815796,13.822872161865234,-1.6636097431182861
1680996935423893000,9.75689306640625,1.6779227256774902,25.461807250976562,-5.604570388793945
1680996935433933600,9.76693359375,1.5007377862930298,18.856338500976562,-2.2148232460021973
1680996935443974000,9.776973876953125,1.2839992046356201,15.87481689453125,-0.5580509305000305
1680996935454014500,9.787014404296874,1.2093660831451416,14.123655319213867,-0.21119630336761475
1680996935464055000,9.797054931640625,1.233854055404663,12.487665176391602,-0.5969359874725342
1680996935474095600,9.807095703125,1.7255768775939941,11.000550270080566,-1.2798168659210205
1680996935484136000,9.817135986328125,1.9364122152328491,9.61950397491455,-1.8449079990386963
1680996935494176500,9.827176513671875,2.1747114658355713,8.542470932006836,-2.194800853729248
1680996935504217000,9.837217041015625,2.192262649536133,7.336756706237793,-2.537631034851074
1680996935514257400,9.84725732421875,2.3954827785491943,5.269038200378418,-3.7718117237091064
1680996935524298000,9.857298095703126,2.4536361694335938,1.4938106536865234,-5.277024269104004
1680996935534338300,9.86733837890625,-7.801801681518555,-4.891219139099121,-3.018531322479248
1680996935544379000,9.87737890625,-23.083723068237305,-16.989891052246094,0.5890829563140869
1680996935554419500,9.88741943359375,-16.470458984375,-29.307832717895508,-0.08430981636047363
1680996935564459800,9.897459716796876,-9.832754135131836,-39.4481201171875,4.040567398071289
1680996935574500400,9.907500244140625,-11.926061630249023,-49.995243072509766,6.053098678588867
1680996935584541000,9.917541015625,-10.534923553466797,-50.46942901611328,-1.2020862102508545
1680996935594581200,9.927581298828125,-8.06313705444336,-34.333641052246094,-6.1130170822143555
1680996935604621800,9.937621826171876,-4.727135181427002,-16.32682991027832,0.5292987823486328
1680996935614662400,9.947662353515625,0.1642162799835205,-6.560233116149902,1.4409339427947998
1680996935624703000,9.957702880859374,4.216075420379639,-0.806757926940918,1.3987417221069336
1680996935634743300,9.967743408203125,5.699151039123535,3.297513008117676,-0.11402201652526855
1680996935644783900,9.977783935546874,8.094944953918457,6.107643127441406,-0.3138120174407959
1680996935654824200,9.98782421875,8.440430641174316,7.216481685638428,-1.8995260000228882
1680996935664864800,9.99786474609375,8.107256889343262,8.298417091369629,-2.995511293411255
1680996935674905300,10.0079052734375,8.629454612731934,8.991572380065918,-3.195852756500244
1680996935684945700,10.017945556640624,9.631711959838867,10.035672187805176,-3.5048739910125732
1680996935694986200,10.027986328125,9.53431224822998,11.275352478027344,-3.5647659301757812
1680996935705026800,10.03802685546875,7.947961807250977,12.287216186523438,-4.012468338012695
1680996935715067100,10.048067138671875,7.800687789916992,13.655181884765625,-4.306506156921387
1680996935725107700,10.058107666015625,8.152217864990234,20.83953285217285,-5.7307868003845215
1680996935735148300,10.068148193359375,7.991917610168457,18.19617462158203,-4.41042947769165
1680996935745188600,10.078188720703125,7.107367038726807,14.45895767211914,-2.154944896697998
1680996935755229200,10.088229248046876,4.964582443237305,13.452098846435547,-1.440121054649353
1680996935765269500,10.09826953125,3.506382703781128,13.092256546020508,-1.4225621223449707
1680996935775310000,10.10831005859375,2.427696943283081,12.486581802368164,-1.5106772184371948
1680996935785350700,10.1183505859375,1.5312811136245728,11.132484436035156,-1.8521826267242432
1680996935795391000,10.128390869140626,0.7837436199188232,9.479172706604004,-2.2665977478027344
1680996935805431600,10.138431640625,-37.34636306762695,-2.5794363021850586,4.523365497589111
1680996935815472000,10.14847216796875,-8.24205493927002,0.21513080596923828,0.7624650001525879
1680996935825512400,10.158512451171875,8.008146286010742,5.079838752746582,-3.4372074604034424
1680996935835553000,10.168552978515624,7.58646297454834,4.2423834800720215,-5.505958080291748
1680996935845593600,10.178593505859375,8.092955589294434,0.8668184280395508,-8.191076278686523
1680996935855634000,10.188634033203124,9.279560089111328,-2.629486083984375,-10.024407386779785
1680996935865674500,10.198674560546875,9.656540870666504,-4.749441146850586,-10.424001693725586
1680996935875715000,10.208715087890624,12.760846138000488,-7.648648262023926,-9.254154205322266
1680996935885755400,10.21875537109375,12.261697769165039,-11.867583274841309,-9.686332702636719
1680996935895796000,10.2287958984375,9.25642204284668,-15.698591232299805,-9.960531234741211
1680996935905836300,10.238836181640625,6.080842018127441,-17.49282455444336,-8.055559158325195
1680996935915876900,10.248876953125,4.577240467071533,-18.824386596679688,-5.7197957038879395
1680996935925917400,10.25891748046875,3.362703800201416,-20.560001373291016,-2.9981634616851807
1680996935935957800,10.268957763671875,3.265172004699707,-22.612472534179688,-0.8277679085731506
1680996935945998300,10.278998291015625,2.6715967655181885,-23.528575897216797,1.4893255233764648
1680996935956039000,10.289038818359375,-2.8010573387145996,-21.887451171875,5.7353291511535645
1680996935966079200,10.299079345703126,-18.561389923095703,-16.319623947143555,13.220503807067871
1680996935976119800,10.309119873046875,-21.964693069458008,-11.83597469329834,11.150321960449219
1680996935986160000,10.31916015625,-14.660938262939453,-9.083854675292969,7.088383674621582
1680996935996200700,10.32920068359375,-10.159317970275879,-8.10338306427002,4.666256427764893
1680996936006241300,10.3392412109375,-9.435009956359863,-6.429125785827637,3.842059850692749
1680996936016281600,10.349281494140625,-11.374719619750977,-3.067842483520508,2.956775426864624
1680996936026322200,10.359322265625,-13.113411903381348,0.28421688079833984,1.6875882148742676
1680996936036362800,10.36936279296875,-10.137643814086914,2.3586673736572266,1.4586175680160522
1680996936046403000,10.379403076171876,-5.750909328460693,4.129861354827881,2.0808753967285156
1680996936056443600,10.389443603515625,-3.2778849601745605,6.362587928771973,2.9626054763793945
1680996936066484200,10.399484130859374,-2.0627670288085938,8.04627513885498,3.1801795959472656
1680996936076524500,10.409524658203125,-1.5153343677520752,8.290996551513672,2.9748775959014893
1680996936086565000,10.419565185546874,-0.7894392013549805,9.380741119384766,2.942084789276123
1680996936096605400,10.42960546875,-0.11268109083175659,10.945625305175781,3.115750789642334
1680996936106646000,10.43964599609375,0.32891207933425903,12.45527172088623,2.9438891410827637
1680996936116686600,10.4496865234375,0.662778913974762,13.777356147766113,2.375166177749634
1680996936126727000,10.459726806640624,1.0746618509292603,14.389915466308594,1.3159376382827759
1680996936136767500,10.469767578125,1.7180917263031006,14.505084991455078,-0.2827717065811157
1680996936146807800,10.479807861328124,1.7923616170883179,13.608243942260742,-2.2232890129089355
1680996936156848400,10.489848388671875,1.062161922454834,11.914009094238281,-3.9588186740875244
1680996936166889000,10.499888916015625,0.4427487254142761,10.091328620910645,-5.2509355545043945
1680996936176929300,10.50992919921875,0.191633939743042,8.131199836730957,-5.838588714599609
1680996936186969900,10.519969970703125,0.2521192729473114,5.734119415283203,-6.121191501617432
1680996936197010200,10.53001025390625,-0.5759024620056152,3.6054306030273438,-5.753056526184082
1680996936207050800,10.54005078125,-1.4095138311386108,1.4509515762329102,-4.259851455688477
1680996936217091300,10.55009130859375,-1.5644611120224,-2.352829933166504,-4.084151744842529
1680996936227131600,10.560131591796875,-2.882782459259033,-7.4467267990112305,-3.960742473602295
1680996936237172200,10.570172119140626,-6.365718841552734,-12.387980461120605,-2.843806505203247
1680996936247212800,10.580212890625,-8.6285982131958,-17.720603942871094,-1.7105469703674316
1680996936257253000,10.590253173828126,-8.179922103881836,-27.932519912719727,-2.763087272644043
1680996936267293700,10.600293701171875,-2.766139030456543,-37.996456146240234,-2.114642858505249
1680996936277334000,10.610333984375,-3.1491854190826416,-44.744789123535156,1.0560826063156128
1680996936287374600,10.62037451171875,-11.317962646484375,-37.64811325073242,-2.150953531265259
1680996936297415200,10.630415283203124,-9.713716506958008,-19.90790557861328,-0.2650623321533203
1680996936307455500,10.64045556640625,-5.018296718597412,-8.871284484863281,1.5645315647125244
1680996936317496000,10.65049609375,0.7151193618774414,-3.25177001953125,3.2808444499969482
1680996936327536400,10.660536376953125,3.943298816680908,0.20860862731933594,3.7902958393096924
1680996936337577000,10.670576904296874,5.028861045837402,3.8992605209350586,3.0354208946228027
1680996936347617300,10.6806171875,5.649710178375244,8.784317970275879,3.1950831413269043
1680996936357657900,10.690657958984374,7.9861249923706055,10.698219299316406,3.930698871612549
1680996936367698400,10.700698486328125,8.576654434204102,10.031935691833496,2.7700695991516113
1680996936377738800,10.71073876953125,8.407106399536133,9.34257984161377,0.8604472875595093
1680996936387779300,10.720779296875,9.007145881652832,9.548654556274414,-0.6039736270904541
1680996936397820000,10.73081982421875,10.477373123168945,10.490317344665527,-0.6040239334106445
1680996936407860200,10.740860107421875,10.660346984863281,13.19659423828125,-0.02512991428375244
1680996936417900800,10.75090087890625,12.408844947814941,14.633360862731934,0.17819297313690186
1680996936427941000,10.760941162109376,12.414602279663086,15.149741172790527,-0.4315822124481201
1680996936437981700,10.770981689453125,10.559614181518555,14.654244422912598,-1.69789457321167
1680996936448022000,10.78102197265625,8.0480375289917,13.768838882446289,-1.9621729850769043
1680996936458062600,10.7910625,5.297417163848877,13.100019454956055,-1.9122164249420166
1680996936468103200,10.801103271484376,3.1425325870513916,12.035273551940918,-2.0758864879608154
1680996936478143500,10.8111435546875,1.7015594244003296,11.085724830627441,-2.3389360904693604
1680996936488184000,10.82118408203125,-1.2540349960327148,10.049310684204102,-2.4050474166870117
1680996936498224400,10.831224365234375,-34.51200866699219,-1.3125905990600586,2.5136146545410156
1680996936508265000,10.841264892578126,-25.688091278076172,-5.046443939208984,3.706782817840576
1680996936518305300,10.85130517578125,-3.9973649978637695,1.8114380836486816,-0.466611385345459
1680996936528345900,10.861345947265624,7.188549041748047,5.741943836212158,-4.7120256423950195
1680996936538386400,10.871386474609375,9.785611152648926,3.3026275634765625,-7.887312889099121
1680996936548426800,10.8814267578125,10.63263988494873,-1.123490333557129,-11.387203216552734
1680996936558467300,10.89146728515625,13.722320556640625,-6.673412322998047,-15.237360954284668
1680996936568507600,10.901507568359374,16.970947265625,-6.4737443923950195,-9.33187484741211
1680996936578548200,10.91154833984375,15.782785415649414,-6.986952781677246,-6.14360237121582
1680996936588588800,10.9215888671875,13.396675109863281,-9.390336990356445,-6.5618767738342285
1680996936598629000,10.931629150390625,11.854287147521973,-12.587342262268066,-6.755507946014404
1680996936608669700,10.941669677734374,8.703907012939453,-13.548110008239746,-5.682972431182861
1680996936618710000,10.9517099609375,5.969046592712402,-13.183797836303711,-3.6656289100646973
1680996936628750600,10.96175048828125,3.874925136566162,-14.034059524536133,-2.011225461959839
1680996936638791000,10.971791015625,3.6966683864593506,-16.460216522216797,-0.8145411014556885
1680996936648831500,10.98183154296875,3.43151593208313,-20.025365829467773,0.31429314613342285
1680996936658871800,10.991871826171876,1.5415456295013428,-21.800941467285156,2.1846227645874023
1680996936668912400,11.001912353515625,-16.157567977905273,-21.116064071655273,7.895291328430176
1680996936678953000,11.011952880859376,-28.910371780395508,-16.227365493774414,9.694913864135742
1680996936688993300,11.0219931640625,-12.623297691345215,-12.402667999267578,5.396500110626221
1680996936699033900,11.032033935546876,-7.133770942687988,-9.50717544555664,4.142947196960449
1680996936709074200,11.04207421875,-7.17364501953125,-5.798539161682129,3.111502170562744
1680996936719114800,11.05211474609375,-9.017997741699219,-2.3510942459106445,1.9133877754211426
1680996936729155000,11.062155029296875,-10.67491340637207,-0.03962230682373047,1.4475836753845215
1680996936739195600,11.072195556640626,-9.37736701965332,1.1378936767578125,1.912913203239441
1680996936749236000,11.082236083984375,-7.066713809967041,2.277632713317871,2.4368162155151367
1680996936759276500,11.092276611328124,-5.241365432739258,3.8900251388549805,2.732806444168091
1680996936769317000,11.102317138671875,-5.884782791137695,6.097260475158691,2.7551956176757812
1680996936779357400,11.112357421875,-5.875815391540527,7.732186794281006,3.0865869522094727
1680996936789398000,11.12239794921875,-3.4945247173309326,8.515518188476562,3.657914400100708
1680996936799438300,11.132438232421874,-1.7018283605575562,9.10092544555664,3.5015406608581543
1680996936809479000,11.14247900390625,0.5828775763511658,9.859617233276367,3.2892415523529053
1680996936819519500,11.15251953125,1.4509904384613037,11.946810722351074,3.1573069095611572
1680996936829559800,11.162559814453125,1.7221055030822754,13.650303840637207,2.9248900413513184
1680996936839600000,11.17260009765625,1.8052620887756348,14.261857986450195,1.9826369285583496
1680996936849640700,11.182640625,1.4725532531738281,13.625082015991211,0.9302587509155273
1680996936859681300,11.192681396484375,0.8427956700325012,12.31484317779541,-0.30451661348342896
1680996936869721600,11.2027216796875,0.5467730760574341,10.909197807312012,-1.1880829334259033
1680996936879762200,11.21276220703125,0.7713032960891724,9.47574234008789,-1.8835079669952393
1680996936889802500,11.222802490234375,0.9074649214744568,8.10505199432373,-2.15347957611084
1680996936899843000,11.232843017578125,1.1196210384368896,6.497316837310791,-2.18190860748291
1680996936909883400,11.24288330078125,0.6878246665000916,4.004073619842529,-2.373297691345215
1680996936919924000,11.252924072265625,-0.4749678373336792,-0.30979251861572266,-3.9068455696105957
1680996936929964300,11.26296435546875,-1.491800308227539,-6.837472915649414,-5.727775573730469
1680996936940004900,11.2730048828125,-2.426687240600586,-14.643379211425781,-7.751404762268066
1680996936950045200,11.283045166015626,-2.607365846633911,-21.982555389404297,-9.275620460510254
1680996936960085800,11.293085693359375,-4.790743350982666,-27.732309341430664,-7.814611434936523
1680996936970126300,11.303126220703126,-3.8378965854644775,-30.63567352294922,-6.354720592498779
1680996936980166700,11.313166748046875,-6.444735527038574,-32.26070022583008,-1.593701958656311
1680996936990207200,11.323207275390626,-9.469745635986328,-28.993343353271484,0.989686131477356
1680996937000247600,11.33324755859375,-9.755094528198242,-18.076885223388672,-1.7956796884536743
1680996937010288000,11.3432880859375,-7.659961700439453,-9.885209083557129,-0.6293695569038391
1680996937020328400,11.353328369140625,-4.294162750244141,-5.278118133544922,1.6563513278961182
1680996937030369000,11.363369140625,-0.6124601364135742,-2.515589714050293,3.5840256214141846
1680996937040409300,11.373409423828125,2.2160887718200684,-0.4734821319580078,4.501373767852783
1680996937050450000,11.383449951171874,4.291512489318848,1.1604480743408203,4.083996772766113
1680996937060490200,11.393490234375,6.661069393157959,2.679008960723877,3.029121160507202
1680996937070530800,11.40353076171875,9.002937316894531,4.098559856414795,2.002979278564453
1680996937080571100,11.413571044921875,10.205015182495117,5.8157734870910645,0.9346854090690613
1680996937090611700,11.42361181640625,10.001314163208008,7.737971782684326,-0.22843945026397705
1680996937100652300,11.43365234375,9.974998474121094,11.61989974975586,-0.33446866273880005
1680996937110692600,11.443692626953125,12.05731201171875,13.687745094299316,1.2670512199401855
1680996937120733200,11.453733154296875,13.42752456665039,12.803634643554688,2.378634452819824
1680996937130773500,11.4637734375,14.365324020385742,12.579278945922852,3.070228099822998
1680996937140814000,11.47381396484375,12.516294479370117,13.271238327026367,2.3646347522735596
1680996937150854400,11.4838544921875,8.979508399963379,12.932660102844238,0.9891513586044312
1680996937160895000,11.49389501953125,5.6556806564331055,12.589888572692871,0.2901107966899872
1680996937170935300,11.503935302734375,3.487104892730713,12.132220268249512,-0.1565079689025879
1680996937180975900,11.513975830078126,1.8457434177398682,11.097543716430664,-0.49976620078086853
1680996937191016200,11.52401611328125,-10.534584045410156,9.514728546142578,-1.4868799448013306
1680996937201056800,11.534056884765626,-32.535255432128906,1.9139113426208496,-1.5862879753112793
1680996937211097000,11.54409716796875,-22.413816452026367,-0.8035259246826172,2.4503164291381836
1680996937221137700,11.5541376953125,-7.4352803230285645,3.5548324584960938,2.7146928310394287
1680996937231178000,11.564177978515625,9.20223617553711,8.967195510864258,-2.825258493423462
1680996937241218600,11.574218505859376,11.865983963012695,6.042411804199219,-5.960690021514893
1680996937251259000,11.5842587890625,11.340238571166992,3.4935765266418457,-7.300403118133545
1680996937261299500,11.594299560546874,10.940614700317383,1.4259591102600098,-8.869359970092773
1680996937271339800,11.60433984375,10.104042053222656,-0.48682212829589844,-9.656423568725586
1680996937281380400,11.61438037109375,9.114910125732422,-1.4377336502075195,-9.78400993347168
1680996937291420700,11.624420654296875,9.638278007507324,-3.6754350662231445,-10.546658515930176
1680996937301461200,11.634461181640624,11.126575469970703,-7.280162811279297,-11.07422924041748
1680996937311501600,11.64450146484375,13.543254852294922,-11.759283065795898,-9.457551002502441
1680996937321542100,11.654542236328124,11.156736373901367,-15.075130462646484,-8.123004913330078
1680996937331582500,11.66458251953125,6.452006816864014,-17.620567321777344,-5.321028709411621
1680996937341623000,11.674623046875,4.6836113929748535,-21.58515167236328,-3.706826686859131
1680996937351663400,11.684663330078125,4.144828796386719,-25.284839630126953,-1.8547006845474243
1680996937361704000,11.694703857421874,3.996790885925293,-26.802051544189453,0.31140756607055664
1680996937371744300,11.704744140625,3.4121975898742676,-25.42469024658203,1.4670801162719727
1680996937381784800,11.714784912109375,1.1818087100982666,-21.544673919677734,3.1254186630249023
1680996937391825200,11.7248251953125,-40.60220718383789,-12.524212837219238,8.03803539276123
1680996937401865700,11.73486572265625,-30.668394088745117,-5.944228172302246,5.039189338684082
1680996937411906300,11.74490625,-12.722658157348633,-5.491191864013672,5.651509761810303
1680996937421946600,11.754946533203125,-8.262052536010742,-4.469684600830078,5.478519439697266
1680996937431987000,11.764987060546876,-7.847036838531494,-2.3441295623779297,4.538787841796875
1680996937442027500,11.775027587890625,-6.643084526062012,-0.39197349548339844,3.622882843017578
1680996937452067800,11.78506787109375,-4.361832141876221,0.8517770767211914,3.4517829418182373
1680996937462108400,11.7951083984375,-3.2553329467773438,2.6894750595092773,3.531449317932129
1680996937472148700,11.805148681640626,-4.627730369567871,5.266157627105713,3.3308682441711426
1680996937482189300,11.815189208984375,-6.662138938903809,8.274346351623535,3.2049922943115234
1680996937492229600,11.825229736328126,-5.424476146697998,9.259544372558594,3.5994322299957275
1680996937502270200,11.835270263671875,-3.070754051208496,10.405854225158691,3.749192237854004
1680996937512310500,11.845310546875,-0.31860458850860596,11.064146041870117,3.2928221225738525
1680996937522351000,11.85535107421875,0.7818648219108582,11.519975662231445,2.2181055545806885
1680996937532391400,11.865391357421874,1.8801575899124146,11.825845718383789,1.1417900323867798
1680996937542432000,11.875431884765625,1.8130264282226562,11.976181030273438,0.4585292339324951
1680996937552472300,11.885472412109374,1.1692743301391602,11.789163589477539,-0.126598060131073
1680996937562513000,11.895512939453125,0.42410504817962646,11.214680671691895,-0.8367030024528503
1680996937572553200,11.90555322265625,-0.0960724800825119,10.69941234588623,-1.5203404426574707
1680996937582593800,11.91559375,-1.362260341644287,10.264504432678223,-2.891207218170166
1680996937592634000,11.925634033203124,-2.7432363033294678,9.713873863220215,-4.3567914962768555
1680996937602674700,11.9356748046875,-2.1001136302948,8.690417289733887,-3.973391056060791
1680996937612715000,11.945715087890624,-1.566046953201294,6.742567539215088,-1.8940274715423584
1680996937622755600,11.955755615234375,0.6441691517829895,5.1010260581970215,-1.640343427658081
1680996937632796000,11.9657958984375,1.4264360666275024,1.9713411331176758,-2.5225439071655273
1680996937642836500,11.97583642578125,1.7668521404266357,-2.546506881713867,-3.4319519996643066
1680996937652876800,11.985876708984375,0.22253525257110596,-8.08731460571289,-3.9517807960510254
1680996937662917400,11.99591748046875,-4.487943649291992,-12.751520156860352,-2.7518093585968018
1680996937672957700,12.005957763671875,-6.6208319664001465,-22.2593994140625,-3.848036289215088
1680996937682998300,12.015998291015626,-7.710574626922607,-36.12910842895508,-1.6606067419052124
1680996937693038600,12.02603857421875,-7.752170562744141,-51.51969909667969,0.35234498977661133
1680996937703079200,12.0360791015625,-13.707571029663086,-49.72822952270508,-5.404960632324219
1680996937713119500,12.046119384765625,-9.94701099395752,-27.95172119140625,-6.1856913566589355
1680996937723160000,12.05616015625,-5.703064918518066,-12.401437759399414,0.5930272340774536
1680996937733200400,12.066200439453125,-0.4448995590209961,-5.128453254699707,3.640441417694092
1680996937743240700,12.07624072265625,2.8375022411346436,-0.7763538360595703,4.2898759841918945
1680996937753281300,12.08628125,4.104818820953369,2.2222652435302734,3.46104097366333
1680996937763321600,12.096321533203126,4.928572177886963,4.323988914489746,1.3366882801055908
1680996937773362200,12.106362060546875,6.811521530151367,5.153903007507324,-0.8751675486564636
1680996937783402500,12.116402587890626,8.936789512634277,6.685340881347656,-2.1064453125
1680996937793443000,12.126443115234375,9.459458351135254,8.310667037963867,-1.7601755857467651
1680996937803483400,12.1364833984375,10.035001754760742,9.968950271606445,-1.9296867847442627
1680996937813524000,12.14652392578125,11.375190734863281,10.500123977661133,-1.0191035270690918
1680996937823564300,12.156564208984374,12.270862579345703,12.534205436706543,0.7207071781158447
1680996937833604900,12.16660498046875,12.653915405273438,20.89580535888672,5.3212080001831055
1680996937843645200,12.176645263671874,16.239566802978516,19.12641716003418,4.1663007736206055
1680996937853685800,12.186685791015625,12.830779075622559,18.054948806762695,1.4352043867111206
1680996937863726000,12.19672607421875,8.783283233642578,17.648468017578125,-0.13637447357177734
1680996937873766400,12.206766357421875,5.5337371826171875,15.91879653930664,-0.7462347149848938
1680996937883807000,12.216806884765624,3.5860540866851807,13.562884330749512,-1.6824030876159668
1680996937893847300,12.226847412109375,1.9514663219451904,11.544466972351074,-2.483694553375244
1680996937903888000,12.236887939453124,-6.566760063171387,8.777103424072266,-2.6390395164489746
1680996937913928200,12.24692822265625,-36.99925231933594,-3.4873666763305664,0.1287977695465088
1680996937923968800,12.25696875,-23.40070152282715,-3.7267932891845703,-0.679599404335022
1680996937934009000,12.267009033203125,-1.7339410781860352,2.0357589721679688,-3.2527565956115723
1680996937944049700,12.277049560546875,11.176042556762695,7.339929580688477,-6.751038551330566
1680996937954090000,12.287090087890626,11.185599327087402,6.269819259643555,-9.48719596862793
1680996937964130600,12.297130615234375,10.285728454589844,3.189777374267578,-11.795039176940918
1680996937974171000,12.3071708984375,10.587416648864746,-4.407112121582031,-15.978096961975098
1680996937984211200,12.317211181640625,15.58919906616211,-12.525212287902832,-20.0137939453125
1680996937994251800,12.327251708984376,9.776933670043945,-17.8603515625,-16.402809143066406
1680996938004292000,12.3372919921875,9.949689865112305,-18.078811645507812,-12.642054557800293
1680996938014332700,12.347332763671876,8.06518268585205,-17.545902252197266,-8.771515846252441
1680996938024373000,12.357373046875,5.969750881195068,-16.811664581298828,-4.565067768096924
1680996938034413600,12.36741357421875,5.354095458984375,-15.678746223449707,-1.3168673515319824
1680996938044454000,12.377453857421875,5.244164943695068,-15.907660484313965,0.5142651796340942
1680996938054494500,12.387494384765626,4.832324028015137,-18.229337692260742,1.0854485034942627
1680996938064534800,12.39753466796875,5.5953593254089355,-21.12445068359375,1.888453722000122
1680996938074575000,12.4075751953125,4.068511486053467,-21.940185546875,4.449806213378906
1680996938084615700,12.41761572265625,-28.22164535522461,-18.360441207885742,12.14677906036377
1680996938094656000,12.427656005859374,-21.706560134887695,-14.995163917541504,10.318845748901367
1680996938104696600,12.437696533203125,-10.890955924987793,-12.156834602355957,7.872201442718506
1680996938114737000,12.44773681640625,-10.858357429504395,-8.44179630279541,5.748814582824707
1680996938124777500,12.457777587890625,-13.494222640991211,-4.202134132385254,3.032466173171997
1680996938134817800,12.46781787109375,-11.974154472351074,-2.093634605407715,1.760465145111084
1680996938144858000,12.477858154296875,-9.439580917358398,-0.7141170501708984,1.3469161987304688
1680996938154898700,12.487898681640624,-6.3111066818237305,0.7089214324951172,1.8354294300079346
1680996938164939000,12.49793896484375,-4.072196006774902,2.592845916748047,2.6540064811706543
1680996938174979600,12.5079794921875,-3.1254146099090576,4.4787516593933105,3.359596014022827
1680996938185020000,12.51802001953125,-4.1385498046875,6.874082088470459,3.560926914215088
1680996938195060500,12.528060546875,-4.200929641723633,8.395792007446289,4.015966892242432
1680996938205100800,12.538100830078125,-2.5627646446228027,9.190424919128418,4.190567493438721
1680996938215141000,12.54814111328125,-0.46771806478500366,9.577754974365234,4.0680646896362305
1680996938225181700,12.558181640625,1.0216014385223389,10.585885047912598,3.7323737144470215
1680996938235222000,12.568221923828125,1.034921407699585,11.717642784118652,3.0579633712768555
1680996938245262600,12.5782626953125,0.46165335178375244,13.504883766174316,2.663592576980591
1680996938255303000,12.588302978515625,-0.4998396039009094,19.085609436035156,3.975243091583252
1680996938265343500,12.598343505859376,-0.1878976821899414,20.233938217163086,3.8699188232421875
1680996938275383800,12.6083837890625,0.6777042746543884,17.805278778076172,2.2611145973205566
1680996938285424400,12.61842431640625,0.5199837684631348,14.569448471069336,0.8711215257644653
1680996938295464700,12.628464599609375,0.6148225665092468,11.683015823364258,0.059675976634025574
1680996938305505000,12.638505126953126,1.1377849578857422,9.85019588470459,0.30798590183258057
1680996938315545600,12.648545654296875,1.5202555656433105,8.635497093200684,0.669575572013855
1680996938325586000,12.6585859375,1.7184593677520752,7.264080047607422,1.0639259815216064
1680996938335626500,12.66862646484375,0.9515880346298218,5.056402206420898,1.1245458126068115
1680996938345666800,12.678666748046876,-0.6539727449417114,0.3795051574707031,0.27016645669937134
1680996938355707400,12.688707275390625,-6.225250720977783,-10.059633255004883,-1.749876856803894
1680996938365747700,12.698747802734376,-13.020424842834473,-27.782869338989258,-6.7801384925842285
1680996938375788000,12.7087880859375,-7.681989669799805,-40.01339340209961,-11.677286148071289
1680996938385828600,12.71882861328125,-6.595914840698242,-48.40549850463867,-10.052690505981445
1680996938395869000,12.728868896484375,-10.632339477539062,-52.81475830078125,0.48033595085144043
1680996938405909200,12.7389091796875,-9.394510269165039,-37.80789566040039,6.684604644775391
1680996938415949800,12.74894970703125,-5.527402400970459,-19.944747924804688,4.831558704376221
1680996938425990100,12.758990234375,-1.1760904788970947,-10.131628036499023,3.155330181121826
1680996938436030700,12.76903076171875,2.982574939727783,-4.573925018310547,2.465118408203125
1680996938446071000,12.779071044921874,5.293453216552734,-1.1661186218261719,2.225864887237549
1680996938456111600,12.789111572265625,5.329063415527344,1.5180130004882812,1.6654115915298462
1680996938466152000,12.79915185546875,5.530078887939453,3.319089412689209,0.8890715837478638
1680996938476192300,12.809192138671875,6.104377746582031,4.977329254150391,-0.12052655220031738
