time,seconds_elapsed,z,y,x
1680886050106675000,0.030675048828125,0,0,0
1680886050116715000,0.040715087890625,-0.035503387451171875,-0.006896018981933594,-0.006368041038513184
1680886050126754800,0.0507548828125,-0.034595489501953125,0.004438877105712891,0.003425091505050659
1680886050136794600,0.060794677734375,0.004525184631347656,0.00526738166809082,0.027516722679138184
1680886050146834400,0.07083447265625,0.02439403533935547,0.012546777725219727,0.07573342323303223
1680886050156874200,0.080874267578125,0.02392864227294922,0.013266801834106445,0.06390759348869324
1680886050166914000,0.0909140625,0.05713081359863281,0.01605701446533203,0.07254663109779358
1680886050176953900,0.100953857421875,0.06649494171142578,-0.004414558410644531,0.023307323455810547
1680886050186993700,0.11099365234375,0.06534194946289062,-0.018669843673706055,-0.020187467336654663
1680886050197033500,0.121033447265625,0.07819747924804688,-0.01262521743774414,-0.0471591055393219
1680886050207073300,0.1310732421875,0.08220100402832031,-0.016394615173339844,-0.08396056294441223
1680886050217113000,0.141113037109375,0.05384540557861328,-0.015983104705810547,-0.062267690896987915
1680886050227153000,0.15115283203125,0.03484153747558594,-0.020428895950317383,-0.0280323326587677
1680886050237192700,0.161192626953125,0.010709762573242188,-0.006845712661743164,0.017002224922180176
1680886050247232500,0.171232421875,-0.014151573181152344,-0.0006020069122314453,0.0284498929977417
1680886050257272300,0.181272216796875,-0.035457611083984375,-0.019085407257080078,0.037648946046829224
1680886050267312000,0.19131201171875,-0.031052589416503906,0.01117086410522461,0.02194330096244812
1680886050277352000,0.20135205078125,0.0023374557495117188,0.02637195587158203,0.009261250495910645
1680886050287391700,0.211391845703125,0.011195182800292969,0.0002932548522949219,-0.021100938320159912
1680886050297431600,0.221431640625,-0.010058403015136719,-0.01507115364074707,0.031844526529312134
1680886050307471400,0.231471435546875,0.012982368469238281,-0.006943464279174805,0.01879134774208069
1680886050317511200,0.24151123046875,0.03742504119873047,0.005058765411376953,-0.005044668912887573
1680886050327551000,0.251551025390625,0.06344127655029297,-0.011506080627441406,-0.010002493858337402
1680886050337590800,0.2615908203125,0.07269763946533203,-0.002691507339477539,0.0074069201946258545
1680886050347630600,0.271630615234375,0.05652809143066406,0.0009539127349853516,0.010153025388717651
1680886050357670400,0.28167041015625,0.024995803833007812,-0.007216691970825195,0.029629439115524292
1680886050367710200,0.291710205078125,-0.005458831787109375,0.008115768432617188,0.008124083280563354
1680886050377750000,0.30175,-0.0003528594970703125,0.03933572769165039,0.0020183026790618896
1680886050387789800,0.311789794921875,0.011509895324707031,0.01178884506225586,0.004937469959259033
1680886050397829600,0.32182958984375,0.013767242431640625,-0.012508392333984375,-0.011413007974624634
1680886050407869400,0.331869384765625,0.020763397216796875,0.012297391891479492,-0.011565327644348145
1680886050417909200,0.3419091796875,0.03238677978515625,-0.00345611572265625,-0.01457187533378601
1680886050427949000,0.351948974609375,0.029912948608398438,0.0018312931060791016,0.012456685304641724
1680886050437988900,0.36198876953125,-0.00039005279541015625,0.00003123283386230469,0.0044137537479400635
1680886050448028700,0.372028564453125,-0.06731510162353516,-0.022173643112182617,0.007372140884399414
1680886050458068500,0.382068359375,-0.07225990295410156,-0.012870550155639648,-0.004796206951141357
1680886050468108300,0.3921083984375,-0.06574440002441406,-0.021862268447875977,-0.023451656103134155
1680886050478148000,0.402148193359375,-0.05256843566894531,-0.009258508682250977,-0.03815490007400513
1680886050488188000,0.41218798828125,-0.037436485290527344,0.03123641014099121,-0.028792470693588257
1680886050498227700,0.422227783203125,-0.039168357849121094,0.03382730484008789,-0.000012755393981933594
1680886050508267500,0.432267578125,-0.020046234130859375,0.01817011833190918,0.02762681245803833
1680886050518307300,0.442307373046875,0.05684471130371094,0.02434539794921875,0.03389143943786621
1680886050528347100,0.45234716796875,0.09918785095214844,-0.03504371643066406,0.003377258777618408
1680886050538387000,0.462386962890625,0.11973285675048828,-0.03979611396789551,0.0798385739326477
1680886050548426800,0.4724267578125,0.11922645568847656,-0.04794955253601074,0.053247421979904175
1680886050558466600,0.482466552734375,0.05123138427734375,-0.04764866828918457,0.0010947883129119873
1680886050568506400,0.49250634765625,-0.019837379455566406,-0.03145027160644531,-0.03228557109832764
1680886050578546200,0.502546142578125,-0.04955768585205078,0.019581317901611328,-0.021063804626464844
1680886050588586000,0.5125859375,-0.04821586608886719,0.020616531372070312,-0.04756388068199158
1680886050598625800,0.522625732421875,-0.04465675354003906,0.019788742065429688,-0.029298514127731323
1680886050608665600,0.53266552734375,-0.053101539611816406,0.019583702087402344,-0.003554046154022217
1680886050618705400,0.542705322265625,-0.05693531036376953,0.001085519790649414,0.024491339921951294
1680886050628745200,0.5527451171875,-0.037418365478515625,-0.009745359420776367,-0.0051889121532440186
1680886050638785000,0.562784912109375,-0.011171340942382812,-0.030049800872802734,-0.011980772018432617
1680886050648824800,0.572824951171875,0.0453948974609375,-0.024738073348999023,-0.01600828766822815
1680886050658864600,0.58286474609375,0.058963775634765625,-0.04610443115234375,-0.006194263696670532
1680886050668904400,0.592904541015625,0.03262042999267578,0.0027894973754882812,0.0032673776149749756
1680886050678944300,0.6029443359375,0.028061866760253906,-0.0012514591217041016,0.012504935264587402
1680886050688984000,0.612984130859375,0.035350799560546875,0.023006916046142578,0.024145007133483887
1680886050699024000,0.62302392578125,0.03072643280029297,0.011603832244873047,-0.006567835807800293
1680886050709063700,0.633063720703125,-0.03045940399169922,-0.0016834735870361328,-0.005799591541290283
1680886050719103500,0.643103515625,-0.06494998931884766,-0.007184505462646484,-0.021423012018203735
1680886050729143300,0.653143310546875,-0.044887542724609375,-0.0003154277801513672,-0.0518893301486969
1680886050739183000,0.66318310546875,-0.05115699768066406,-0.021407127380371094,-0.02921465039253235
1680886050749223000,0.673222900390625,-0.026723861694335938,-0.04196786880493164,-0.041265249252319336
1680886050759262700,0.6832626953125,0.006812095642089844,-0.02232193946838379,-0.01828274130821228
1680886050769302500,0.693302490234375,0.03748035430908203,0.0015344619750976562,0.02370893955230713
1680886050779342300,0.70334228515625,0.0252532958984375,0.013092041015625,0.06627318263053894
1680886050789382100,0.713382080078125,0.022548675537109375,0.015075206756591797,0.07214441895484924
1680886050799422000,0.723421875,0.0009412765502929688,0.017120361328125,0.04637885093688965
1680886050809461800,0.733461669921875,-0.013398170471191406,0.019457340240478516,0.009597480297088623
1680886050819501600,0.74350146484375,-0.006411552429199219,-0.0038042068481445312,-0.020416051149368286
1680886050829541400,0.753541259765625,-0.02547168731689453,0.013571739196777344,-0.029975205659866333
1680886050839581200,0.763581298828125,-0.032451629638671875,-0.002178668975830078,-0.02377241849899292
1680886050849621000,0.77362109375,-0.006299018859863281,0.012837648391723633,-0.02973109483718872
1680886050859660800,0.783660888671875,0.03127765655517578,-0.005566596984863281,-0.03788268566131592
1680886050869700600,0.79370068359375,0.03540325164794922,-0.0004394054412841797,-0.005838453769683838
1680886050879740400,0.803740478515625,0.03733253479003906,-0.019425153732299805,-0.009990453720092773
1680886050889780200,0.8137802734375,0.03944683074951172,0.006217479705810547,-0.04541516304016113
1680886050899820000,0.823820068359375,0.03470134735107422,-0.0065801143646240234,-0.06075379252433777
1680886050909859800,0.83385986328125,0.04205513000488281,-0.007675886154174805,-0.104146808385849
1680886050919899600,0.843899658203125,0.04727363586425781,-0.07262015342712402,-0.15309035778045654
1680886050929939700,0.853939697265625,0.04796600341796875,-0.16707777976989746,-0.1777641475200653
1680886050939979300,0.863979248046875,-0.022045135498046875,-0.21223044395446777,-0.26660317182540894
1680886050950019000,0.87401904296875,-0.065155029296875,-0.24654102325439453,-0.29203110933303833
1680886050960059100,0.88405908203125,-0.032174110412597656,-0.25409770011901855,-0.24849453568458557
1680886050970099000,0.894098876953125,0.021627426147460938,-0.21436667442321777,-0.28135064244270325
1680886050980138800,0.904138671875,0.06521224975585938,-0.23848533630371094,-0.2884364724159241
1680886050990178600,0.914178466796875,0.01621532440185547,-0.280048131942749,-0.22218024730682373
1680886051000218400,0.92421826171875,0.07871055603027344,-0.2564401626586914,-0.34023645520210266
1680886051010258200,0.934258056640625,0.08835887908935547,-0.32866573333740234,-0.3309704661369324
1680886051020298000,0.944298095703125,0.14254188537597656,-0.37967967987060547,-0.391446590423584
1680886051030337800,0.954337890625,0.15591812133789062,-0.45009398460388184,-0.42868420481681824
1680886051040377600,0.964377685546875,0.18108081817626953,-0.478679895401001,-0.5130375623703003
1680886051050417400,0.97441748046875,0.2134256362915039,-0.5021352767944336,-0.5539311766624451
1680886051060457200,0.984457275390625,0.20369529724121094,-0.5469601154327393,-0.5242689847946167
1680886051070497000,0.9944970703125,0.1550121307373047,-0.5771770477294922,-0.5042315125465393
1680886051080536800,1.004536865234375,0.08154869079589844,-0.4879589080810547,-0.44594860076904297
1680886051090576600,1.01457666015625,0.1546163558959961,-0.17648553848266602,-0.2325594425201416
1680886051100616400,1.024616455078125,0.10934162139892578,0.10703110694885254,0.08119583129882812
1680886051110656300,1.03465625,0.05741596221923828,0.35336899757385254,0.32420408725738525
1680886051120696000,1.044696044921875,0.038743019104003906,0.5452306270599365,0.5587433576583862
1680886051130735900,1.05473583984375,-0.15155410766601562,0.6676087379455566,0.8278038501739502
1680886051140775700,1.064775634765625,-0.5213651657104492,0.7435035705566406,1.017180323600769
1680886051150815500,1.0748154296875,-0.8192081451416016,0.836005687713623,1.1364223957061768
1680886051160855300,1.084855224609375,-1.0484867095947266,0.8860220909118652,1.1359659433364868
1680886051170895000,1.09489501953125,-1.1538825035095215,0.8794443607330322,0.8876512050628662
1680886051180935000,1.104934814453125,-1.1348247528076172,0.8270373344421387,0.3412283658981323
1680886051190974700,1.114974609375,-1.0809121131896973,0.6585252285003662,-0.07642829418182373
1680886051201014500,1.1250146484375,-1.1074137687683105,0.3230283260345459,-0.46734774112701416
1680886051211054300,1.135054443359375,-0.5681982040405273,0.21792387962341309,-1.1162307262420654
1680886051221094100,1.14509423828125,-0.5341978073120117,-0.11506485939025879,-1.005951166152954
1680886051231134000,1.155134033203125,-0.663823127746582,-0.9983000755310059,-0.8634510636329651
1680886051241173800,1.165173828125,-0.8273525238037109,-1.0008714199066162,-0.08536171913146973
1680886051251213600,1.175213623046875,-0.9158315658569336,-0.8085949420928955,-0.2093409299850464
1680886051261253400,1.18525341796875,-1.1492719650268555,-0.44425487518310547,-0.2047266960144043
1680886051271293200,1.195293212890625,-0.9982304573059082,0.1435689926147461,0.17048072814941406
1680886051281333000,1.2053330078125,-0.5715665817260742,1.0071046352386475,0.21226119995117188
1680886051291372800,1.215372802734375,-0.2739229202270508,1.5191738605499268,0.6053671836853027
1680886051301412600,1.22541259765625,-0.29119205474853516,1.240466833114624,1.3665258884429932
1680886051311452400,1.235452392578125,-0.07654285430908203,0.5718953609466553,1.5753021240234375
1680886051321492200,1.2454921875,0.22174453735351562,-0.12434113025665283,1.4967584609985352
1680886051331532000,1.255531982421875,0.3311128616333008,-0.25703155994415283,1.114698886871338
1680886051341571800,1.26557177734375,0.4348783493041992,-0.026226162910461426,0.7691206932067871
1680886051351611600,1.275611572265625,0.6864137649536133,0.2316352128982544,0.5640139579772949
1680886051361651500,1.2856513671875,1.0190553665161133,0.17686152458190918,0.5657963752746582
1680886051371691300,1.295691162109375,1.4526147842407227,-0.0518871545791626,0.440274715423584
1680886051381731000,1.30573095703125,1.8445262908935547,-0.6326513886451721,-1.0170717239379883
1680886051391771000,1.31577099609375,2.1977128982543945,-1.1756725311279297,0.24932098388671875
1680886051401810700,1.325810791015625,2.6597204208374023,-0.699095606803894,0.24474143981933594
1680886051411850500,1.3358505859375,2.4772567749023438,-0.1275184154510498,-0.1291351318359375
1680886051421890300,1.345890380859375,1.2325077056884766,-0.2520744204521179,-0.1337871551513672
1680886051431930000,1.35593017578125,-0.34618663787841797,-0.26685959100723267,-0.3914308547973633
1680886051441970000,1.365969970703125,-1.6527214050292969,-0.12557828426361084,-0.6678550243377686
1680886051452009700,1.376009765625,-2.4594435691833496,0.1819361448287964,-0.8892936706542969
1680886051462049500,1.386049560546875,-2.8105807304382324,0.4433712959289551,-0.6774764060974121
1680886051472089300,1.39608935546875,-3.136050224304199,0.6079659461975098,-0.4835684299468994
1680886051482129200,1.406129150390625,-2.8605709075927734,0.6602345705032349,-0.1666412353515625
1680886051492169000,1.4161689453125,-1.8548774719238281,0.47767555713653564,0.6130421161651611
1680886051502208800,1.426208740234375,-0.6141948699951172,0.14682185649871826,1.1902415752410889
1680886051512248600,1.43624853515625,0.81591796875,-0.2110072374343872,1.6898646354675293
1680886051522288400,1.446288330078125,2.2357330322265625,-0.5214175581932068,2.1549601554870605
1680886051532328200,1.456328125,2.970926284790039,-0.6084954738616943,1.7694358825683594
1680886051542368000,1.466367919921875,2.8376550674438477,-0.0653606653213501,-0.09567594528198242
1680886051552407800,1.47640771484375,1.9883184432983398,0.04752242565155029,-0.8809266090393066
1680886051562447600,1.486447509765625,1.1185903549194336,-0.29680633544921875,-0.7585004568099976
1680886051572487400,1.4964873046875,0.6722030639648438,-0.43358659744262695,-0.6783953905105591
1680886051582527500,1.506527587890625,0.28679656982421875,-0.26594996452331543,-0.7896116971969604
1680886051592567000,1.516567138671875,0.24277782440185547,-0.15033680200576782,-0.4555107355117798
1680886051602606800,1.52660693359375,0.13029003143310547,0.0009927749633789062,-0.2674816846847534
1680886051612647000,1.53664697265625,0.09276008605957031,0.17988115549087524,-0.013433694839477539
1680886051622686500,1.5466865234375,-0.09494781494140625,0.29703402519226074,0.11490678787231445
1680886051632726500,1.5567265625,-0.353912353515625,0.32232755422592163,0.2645151615142822
1680886051642766300,1.566766357421875,-0.3690185546875,0.1915196180343628,0.36040616035461426
1680886051652806000,1.576805908203125,-0.29068851470947266,-0.0017173290252685547,0.2515122890472412
1680886051662846000,1.586845947265625,-0.21441936492919922,-0.05219829082489014,-0.17827320098876953
1680886051672885800,1.5968857421875,-0.3071737289428711,-0.03819835186004639,-0.610901951789856
1680886051682925600,1.606925537109375,-0.42804431915283203,-0.08515357971191406,-0.6726667881011963
1680886051692965400,1.61696533203125,-0.32610130310058594,-0.17658895254135132,-0.5166443586349487
1680886051703005200,1.627005126953125,0.01584148406982422,-0.2212609052658081,-0.356592059135437
1680886051713045000,1.637044921875,0.41268253326416016,-0.29066216945648193,-0.19195711612701416
1680886051723084800,1.647084716796875,0.6440753936767578,-0.28850698471069336,-0.0699610710144043
1680886051733124600,1.65712451171875,0.6514930725097656,-0.2982865273952484,-0.04594743251800537
1680886051743164400,1.667164306640625,0.2918567657470703,-0.3063317835330963,0.07850837707519531
1680886051753204200,1.677204345703125,0.022724151611328125,-0.2399192452430725,0.09598004817962646
1680886051763244000,1.687244140625,-0.18372726440429688,-0.127238929271698,-0.006430506706237793
1680886051773283800,1.697283935546875,-0.28318214416503906,-0.058524489402770996,0.04366660118103027
1680886051783323600,1.70732373046875,-0.16372966766357422,0.10816848278045654,0.2207949161529541
1680886051793363500,1.717363525390625,-0.0064849853515625,0.28544336557388306,0.37373650074005127
1680886051803403300,1.7274033203125,0.07456207275390625,0.4133104681968689,0.4857780933380127
1680886051813443000,1.737443115234375,0.09170341491699219,0.3615128993988037,0.6119174957275391
1680886051823483000,1.74748291015625,0.035170555114746094,0.24341124296188354,0.6078107357025146
1680886051833522700,1.757522705078125,-0.09819221496582031,0.08134418725967407,0.5857959985733032
1680886051843562500,1.7675625,-0.28055667877197266,-0.04360556602478027,0.7222779989242554
1680886051853602300,1.777602294921875,-0.40997314453125,-0.10832369327545166,0.8835456371307373
1680886051863642000,1.78764208984375,-0.3458738327026367,-0.09537351131439209,0.9167522192001343
1680886051873682000,1.797681884765625,-0.10935401916503906,-0.018891990184783936,0.7781356573104858
1680886051883721700,1.8077216796875,0.2147846221923828,0.012115478515625,0.5292865037918091
1680886051893761500,1.817761474609375,0.42748546600341797,0.01450282335281372,0.28398942947387695
1680886051903801300,1.82780126953125,0.5658159255981445,0.0015238523483276367,0.13157451152801514
1680886051913841200,1.837841064453125,0.47055912017822266,-0.02199256420135498,0.06635499000549316
1680886051923881000,1.847880859375,0.28514766693115234,-0.06841003894805908,0.01702296733856201
1680886051933920800,1.857920654296875,0.18564319610595703,-0.08293408155441284,-0.04539632797241211
1680886051943960600,1.867960693359375,0.06842041015625,-0.1353072226047516,-0.021374821662902832
1680886051954000400,1.87800048828125,-0.20601749420166016,-0.14621350169181824,-0.18718791007995605
1680886051964040200,1.888040283203125,-0.6890487670898438,-0.07986664772033691,-0.4122174382209778
1680886051974080000,1.898080078125,-0.8295326232910156,-0.10365268588066101,-0.2713751196861267
1680886051984119800,1.908119873046875,-0.6306667327880859,-0.06635725498199463,-0.032657086849212646
1680886051994159600,1.91815966796875,-0.39083194732666016,0.001907944679260254,0.1301214098930359
1680886052004199400,1.928199462890625,-0.0713491439819336,0.06331557035446167,0.1938449740409851
1680886052014239200,1.9382392578125,0.3283224105834961,0.11926436424255371,0.1491723656654358
1680886052024279000,1.948279052734375,0.5869569778442383,0.10711109638214111,0.08182233572006226
1680886052034318800,1.95831884765625,0.6460056304931641,0.03517448902130127,0.04747229814529419
1680886052044358700,1.968358642578125,0.5683794021606445,-0.01087719202041626,-0.02488720417022705
1680886052054398500,1.9783984375,0.37837696075439453,-0.07578450441360474,-0.06739118695259094
1680886052064438300,1.988438232421875,0.18587398529052734,-0.11080074310302734,-0.114743173122406
1680886052074478000,1.99847802734375,0.011968612670898438,-0.0717422366142273,-0.145853191614151
1680886052084518000,2.008517822265625,-0.0914602279663086,-0.047872722148895264,-0.16345372796058655
1680886052094558000,2.018557861328125,-0.14429473876953125,-0.03332987427711487,-0.06944030523300171
1680886052104597500,2.028597412109375,-0.1614980697631836,-0.015510231256484985,0.06323933601379395
1680886052114637600,2.038637451171875,-0.1387462615966797,0.013523280620574951,0.13265067338943481
1680886052124677400,2.048677490234375,-0.10009765625,0.03741663694381714,0.1438567042350769
1680886052134717000,2.058717041015625,-0.0358428955078125,0.031939804553985596,0.14110028743743896
1680886052144757000,2.068757080078125,-0.014847755432128906,0.027024567127227783,0.07469743490219116
1680886052154796800,2.078796875,0.0014295578002929688,-0.018781661987304688,0.03994089365005493
1680886052164836600,2.088836669921875,0.010743141174316406,-0.024946004152297974,0.028163433074951172
1680886052174876400,2.09887646484375,0.03933906555175781,-0.049020349979400635,0.008339941501617432
1680886052184916200,2.108916259765625,0.04889106750488281,-0.06876680254936218,-0.02061396837234497
1680886052194956000,2.1189560546875,0.022706985473632812,-0.026524335145950317,-0.009647727012634277
1680886052204995800,2.128995849609375,0.0037479400634765625,0.006287813186645508,0.030392885208129883
1680886052215035600,2.13903564453125,-0.008062362670898438,-0.020097672939300537,0.035527944564819336
1680886052225075500,2.149075439453125,-0.010358810424804688,0.0016102790832519531,0.010606467723846436
1680886052235115300,2.159115234375,-0.06274032592773438,-0.01006200909614563,0.003299891948699951
1680886052245155000,2.169155029296875,-0.08392810821533203,-0.03823724389076233,-0.013148725032806396
1680886052255195000,2.17919482421875,-0.062107086181640625,-0.03767213225364685,-0.03459805250167847
1680886052265234700,2.189234619140625,-0.030829429626464844,-0.041697174310684204,-0.006502807140350342
1680886052275274500,2.1992744140625,-0.004428863525390625,-0.02187761664390564,-0.0005192160606384277
1680886052285314300,2.209314208984375,0.01711273193359375,0.0024827122688293457,0.0360713005065918
1680886052295354000,2.21935400390625,-0.0067291259765625,0.009975254535675049,0.05117887258529663
1680886052305394000,2.229393798828125,0.014798164367675781,0.01485675573348999,0.08339148759841919
1680886052315433700,2.239433837890625,0.026353836059570312,-0.016132116317749023,0.032185912132263184
1680886052325473500,2.2494736328125,0.04245281219482422,0.0001291036605834961,0.016966640949249268
1680886052335513300,2.259513427734375,0.037131309509277344,0.015964150428771973,-0.03845161199569702
1680886052345553200,2.26955322265625,0.0084228515625,0.0033069849014282227,-0.0516512393951416
1680886052355593000,2.279593017578125,-0.024454116821289062,-0.03463321924209595,0.0800400972366333
1680886052365632800,2.2896328125,-0.0944976806640625,-0.00564005970954895,0.06165987253189087
1680886052375672600,2.299672607421875,-0.12348365783691406,0.020991384983062744,0.031169235706329346
1680886052385712400,2.30971240234375,-0.05559730529785156,-0.0020935535430908203,0.06435179710388184
1680886052395752200,2.319752197265625,-0.024216651916503906,-0.03904816508293152,0.07686436176300049
1680886052405792000,2.3297919921875,0.0325469970703125,-0.02154645323753357,0.04691964387893677
1680886052415831800,2.339831787109375,0.04837608337402344,-0.03982996940612793,0.028835296630859375
1680886052425871600,2.34987158203125,0.052249908447265625,-0.018141329288482666,0.00540006160736084
1680886052435911400,2.359911376953125,0.016107559204101562,-0.004160553216934204,0.005003511905670166
1680886052445951200,2.369951171875,-0.0029420852661132812,0.004838407039642334,-0.002582073211669922
1680886052455991000,2.379990966796875,-0.0028390884399414062,-0.02620100975036621,0.006308138370513916
1680886052466030800,2.39003076171875,-0.00039005279541015625,-0.04246506094932556,-0.01792055368423462
1680886052476070700,2.400070556640625,-0.00035190582275390625,0.00528600811958313,0.01016169786453247
1680886052486110500,2.4101103515625,0.009075164794921875,0.012301325798034668,0.024045705795288086
1680886052496150300,2.420150390625,0.008852005004882812,0.007436156272888184,0.057705819606781006
1680886052506190300,2.4301904296875,-0.0055561065673828125,-0.044100284576416016,0.042092859745025635
1680886052516230100,2.440230224609375,-0.0031862258911132812,-0.05693739652633667,0.016264498233795166
1680886052526270000,2.45027001953125,-0.02432537078857422,-0.017882436513900757,0.006280958652496338
1680886052536309800,2.460309814453125,-0.02859210968017578,-0.007916927337646484,0.03366804122924805
1680886052546349600,2.470349609375,-0.03985309600830078,0.020590603351593018,0.03718072175979614
1680886052556389400,2.480389404296875,-0.06979751586914062,0.01346820592880249,0.07878899574279785
1680886052566429200,2.49042919921875,-0.035721778869628906,0.006504803895950317,0.05203688144683838
1680886052576469000,2.500468994140625,0.011920928955078125,-0.0028662681579589844,-0.02371358871459961
1680886052586508800,2.5105087890625,0.04235553741455078,-0.03595823049545288,-0.03541988134384155
1680886052596548600,2.520548583984375,0.020569801330566406,-0.024115294218063354,-0.005505263805389404
1680886052606588400,2.53058837890625,-0.010257720947265625,-0.005392104387283325,-0.023362159729003906
1680886052616628200,2.540628173828125,-0.04296112060546875,0.010794132947921753,-0.009854018688201904
1680886052626668000,2.55066796875,-0.06105613708496094,0.019954323768615723,0.004127860069274902
1680886052636707800,2.560707763671875,-0.05063915252685547,0.0057222843170166016,0.011220991611480713
1680886052646747600,2.57074755859375,-0.035712242126464844,-0.008106976747512817,0.025503337383270264
1680886052656787500,2.580787353515625,-0.011636734008789062,0.013761371374130249,0.051513493061065674
1680886052666827300,2.5908271484375,-0.020949363708496094,0.0022763609886169434,0.09400618076324463
1680886052676867000,2.6008671875,0.014603614807128906,0.01433652639389038,0.07741641998291016
1680886052686907000,2.610906982421875,0.01422882080078125,0.00952059030532837,0.09454858303070068
1680886052696946700,2.62094677734375,0.016206741333007812,-0.019066929817199707,0.05290621519088745
1680886052706986500,2.630986572265625,0.022876739501953125,-0.04029974341392517,0.028325319290161133
1680886052717026300,2.6410263671875,0.012996673583984375,-0.04722273349761963,-0.017511367797851562
1680886052727066000,2.651066162109375,-0.0060977935791015625,-0.06596684455871582,-0.048939645290374756
1680886052737106000,2.66110595703125,-0.022498130798339844,-0.04653945565223694,-0.04736906290054321
1680886052747145700,2.671145751953125,-0.03155040740966797,-0.04124751687049866,-0.048606693744659424
1680886052757185500,2.681185546875,-0.028664588928222656,-0.007553786039352417,0.001493990421295166
1680886052767225300,2.691225341796875,-0.03289985656738281,0.01162642240524292,0.05552995204925537
1680886052777265200,2.70126513671875,-0.04182720184326172,0.018877923488616943,0.09055119752883911
1680886052787305000,2.711304931640625,-0.06010913848876953,0.03545820713043213,0.11218136548995972
1680886052797344800,2.7213447265625,-0.05228710174560547,0.03778409957885742,0.10428512096405029
1680886052807384600,2.731384521484375,-0.05643272399902344,0.04711189866065979,0.09289079904556274
1680886052817424400,2.74142431640625,-0.032311439514160156,0.004599273204803467,0.0683361291885376
1680886052827464400,2.75146435546875,-0.02273273468017578,0.00039693713188171387,0.037487566471099854
1680886052837504300,2.761504150390625,0.033794403076171875,-0.02054932713508606,-0.04942137002944946
1680886052847544000,2.7715439453125,0.07297611236572266,-0.046341270208358765,-0.07682859897613525
1680886052857583900,2.781583984375,0.0904388427734375,-0.04134681820869446,-0.12200602889060974
1680886052867623700,2.791623779296875,0.048872947692871094,-0.03630352020263672,-0.029608190059661865
1680886052877663500,2.80166357421875,-0.024915695190429688,-0.026296168565750122,0.07673841714859009
1680886052887703300,2.811703369140625,-0.03164196014404297,0.032982468605041504,0.05089282989501953
1680886052897743000,2.8217431640625,-0.0030670166015625,0.020411431789398193,0.03954875469207764
1680886052907783000,2.831782958984375,-0.017429351806640625,0.014876633882522583,-0.014684677124023438
1680886052917822700,2.84182275390625,-0.005682945251464844,-0.004805386066436768,-0.01563507318496704
1680886052927862500,2.851862548828125,-0.005854606628417969,-0.012492626905441284,-0.024292826652526855
1680886052937902300,2.86190234375,0.0458526611328125,-0.01062476634979248,-0.03423035144805908
1680886052947942100,2.871942138671875,0.045009613037109375,-0.022687584161758423,-0.03422737121582031
1680886052957982000,2.88198193359375,0.03248405456542969,-0.05999395251274109,-0.0053122639656066895
1680886052968021800,2.892021728515625,0.006073951721191406,-0.011698246002197266,-0.034140825271606445
1680886052978061600,2.9020615234375,-0.0034275054931640625,-0.006690889596939087,-0.01982724666595459
1680886052988101400,2.912101318359375,-0.03870105743408203,-0.0042424798011779785,0.0020210742950439453
1680886052998141200,2.92214111328125,-0.016922950744628906,-0.02301931381225586,0.019442737102508545
1680886053008181000,2.932180908203125,-0.021414756774902344,-0.013236135244369507,0.02027451992034912
1680886053018220800,2.942220703125,-0.02347564697265625,0.020047307014465332,-0.007278800010681152
1680886053028260600,2.952260498046875,-0.011363029479980469,-0.0013671815395355225,0.01482623815536499
1680886053038300400,2.962300537109375,-0.006516456604003906,-0.015299856662750244,0.01766735315322876
1680886053048340200,2.97234033203125,-0.01823139190673828,0.008673518896102905,0.03228503465652466
1680886053058380000,2.982380126953125,-0.01562786102294922,-0.00553441047668457,0.04912829399108887
1680886053068419800,2.992419921875,0.008123397827148438,-0.010272383689880371,0.03991866111755371
1680886053078459600,3.002459716796875,0.007941246032714844,-0.026885926723480225,0.040344178676605225
1680886053088499700,3.012499755859375,0.0030498504638671875,-0.022097140550613403,0.03382086753845215
1680886053098539500,3.02253955078125,-0.030010223388671875,-0.015092939138412476,0.036882102489471436
1680886053108579300,3.032579345703125,-0.038992881774902344,-0.005733281373977661,0.04006916284561157
1680886053118619100,3.042619140625,-0.03841590881347656,-0.03419673442840576,0.04567509889602661
1680886053128659000,3.052658935546875,-0.044928550720214844,-0.02916806936264038,0.04671502113342285
1680886053138698800,3.06269873046875,-0.03250408172607422,-0.00798293948173523,0.036323368549346924
1680886053148738600,3.072738525390625,-0.03913116455078125,0.005609691143035889,0.04293787479400635
1680886053158778400,3.0827783203125,-0.03859424591064453,0.021333396434783936,0.026073992252349854
1680886053168818200,3.092818115234375,-0.012190818786621094,0.02767959237098694,0.03785330057144165
1680886053178858000,3.10285791015625,-0.009791374206542969,0.027155518531799316,0.042488694190979004
1680886053188897800,3.112897705078125,-0.005091667175292969,0.038591206073760986,0.047161757946014404
1680886053198937600,3.1229375,0.03484630584716797,0.030881673097610474,0.035339415073394775
1680886053208977400,3.132977294921875,0.052948951721191406,0.03718024492263794,0.0047719478607177734
1680886053219017200,3.143017333984375,0.04723548889160156,0.0291212797164917,-0.037401556968688965
1680886053229057000,3.15305712890625,0.05578899383544922,0.030485928058624268,-0.06079593300819397
1680886053239096800,3.163096923828125,0.04776191711425781,0.01063382625579834,-0.07749825716018677
1680886053249136600,3.17313671875,0.0399017333984375,0.0030607283115386963,-0.08056366443634033
1680886053259176400,3.183176513671875,0.05574607849121094,0.0073816776275634766,-0.09122729301452637
1680886053269216300,3.19321630859375,0.024263381958007812,-0.0073861777782440186,-0.0831095278263092
1680886053279256000,3.203256103515625,0.03098297119140625,-0.003130108118057251,-0.09643584489822388
1680886053289296000,3.2132958984375,0.018774032592773438,-0.0036532580852508545,-0.1051856279373169
1680886053299335700,3.223335693359375,0.016191482543945312,-0.011056363582611084,-0.09760215878486633
1680886053309375500,3.23337548828125,-0.021645545959472656,-0.025165855884552002,-0.0953223705291748
1680886053319415300,3.243415283203125,-0.03767108917236328,-0.03644999861717224,-0.07671922445297241
1680886053329455000,3.253455078125,-0.008707046508789062,-0.03346744179725647,-0.06061524152755737
1680886053339495000,3.263494873046875,-0.020242691040039062,-0.0544242262840271,-0.03742828965187073
1680886053349535000,3.273534912109375,-0.010409355163574219,-0.039830565452575684,-0.04023495316505432
1680886053359574500,3.283574462890625,-0.014874458312988281,-0.05619329214096069,-0.01681274175643921
1680886053369614600,3.293614501953125,-0.00043773651123046875,-0.036724984645843506,-0.03628349304199219
1680886053379654400,3.303654296875,0.004334449768066406,-0.0006889402866363525,0.029085397720336914
1680886053389694200,3.313694091796875,0.0043087005615234375,-0.0026351213455200195,0.029692649841308594
1680886053399734000,3.323734130859375,0.030168533325195312,0.012075752019882202,0.08452528715133667
1680886053409773800,3.33377392578125,0.0556182861328125,-0.009163647890090942,0.06779497861862183
1680886053419813600,3.343813720703125,0.08777046203613281,-0.030910521745681763,0.027421653270721436
1680886053429853400,3.353853515625,0.06532096862792969,-0.0577375590801239,0.0011032819747924805
1680886053439893200,3.363893310546875,-0.0037822723388671875,-0.08214390277862549,-0.025460422039031982
1680886053449933000,3.37393310546875,-0.059945106506347656,-0.10133090615272522,-0.04256525635719299
1680886053459972900,3.383972900390625,-0.10809993743896484,-0.05157327651977539,-0.03631460666656494
1680886053470012700,3.3940126953125,-0.11069297790527344,-0.025621026754379272,-0.007661044597625732
1680886053480052500,3.404052490234375,-0.07789421081542969,0.009278357028961182,0.05763155221939087
1680886053490092300,3.41409228515625,0.0038280487060546875,0.09443706274032593,0.09865498542785645
1680886053500132000,3.424132080078125,0.039427757263183594,0.0948495864868164,0.11926275491714478
1680886053510172000,3.434171875,0.04136466979980469,0.05031287670135498,0.05928480625152588
1680886053520211700,3.444211669921875,0.019586563110351562,0.02579551935195923,-0.00237119197845459
1680886053530251500,3.45425146484375,0.005125999450683594,0.03786426782608032,-0.02660548686981201
1680886053540291300,3.464291259765625,0.002658843994140625,0.026901721954345703,-0.0625038743019104
1680886053550331100,3.4743310546875,0.00501251220703125,0.006906628608703613,-0.028614521026611328
1680886053560371000,3.484370849609375,0.012137413024902344,-0.024613767862319946,-0.04405277967453003
1680886053570410800,3.49441064453125,0.021587371826171875,-0.027813702821731567,-0.043890178203582764
1680886053580450800,3.504450927734375,0.00031948089599609375,-0.03836733102798462,-0.025318622589111328
1680886053590490600,3.51449072265625,-0.004151344299316406,0.0006264448165893555,-0.03223848342895508
1680886053600530400,3.524530517578125,-0.022760391235351562,-0.0054441094398498535,-0.028411567211151123
1680886053610570200,3.5345703125,-0.027025222778320312,0.040763795375823975,-0.05404794216156006
1680886053620610000,3.544610107421875,-0.0006704330444335938,0.07228881120681763,-0.021966934204101562
1680886053630649900,3.55464990234375,0.04643440246582031,0.07253885269165039,-0.03271067142486572
1680886053640689700,3.564689697265625,0.04574108123779297,0.03946244716644287,-0.03237783908843994
1680886053650729500,3.5747294921875,0.05458831787109375,0.009228706359863281,-0.00797802209854126
1680886053660769300,3.584769287109375,0.061054229736328125,-0.057962119579315186,0.023162782192230225
1680886053670809000,3.59480908203125,0.060448646545410156,-0.0811464786529541,0.04462307691574097
1680886053680849000,3.604848876953125,0.0269622802734375,-0.037898749113082886,0.10691988468170166
1680886053690888700,3.614888671875,-0.005923271179199219,-0.02634143829345703,0.1985684633255005
1680886053700928500,3.624928466796875,-0.0736093521118164,0.008244812488555908,0.27319151163101196
1680886053710968300,3.63496826171875,-0.15211200714111328,0.011881470680236816,0.33746767044067383
1680886053721008000,3.645008056640625,-0.19662857055664062,0.025496602058410645,0.33161675930023193
1680886053731048000,3.6550478515625,-0.17244338989257812,0.004373490810394287,0.2499750256538391
1680886053741087700,3.665087646484375,-0.10887813568115234,0.029127776622772217,0.17273080348968506
1680886053751127600,3.67512744140625,-0.011168479919433594,-0.018960416316986084,0.08627909421920776
1680886053761167400,3.68516748046875,0.04726219177246094,-0.05633997917175293,-0.003988027572631836
1680886053771207200,3.695207275390625,0.09540653228759766,-0.07176154851913452,-0.06152617931365967
1680886053781247000,3.7052470703125,0.10523033142089844,-0.07519879937171936,-0.07333189249038696
1680886053791287000,3.715287109375,0.07970809936523438,-0.0526147186756134,-0.04704767465591431
1680886053801326800,3.725326904296875,0.038229942321777344,-0.03289419412612915,0.017361164093017578
1680886053811366700,3.73536669921875,0.009261131286621094,0.0001817941665649414,0.03793489933013916
1680886053821406500,3.745406494140625,-0.019243240356445312,0.027240455150604248,0.08734464645385742
1680886053831446300,3.7554462890625,-0.07792472839355469,0.01777017116546631,0.09972834587097168
1680886053841486000,3.765486083984375,-0.08626651763916016,0.010212421417236328,0.09719419479370117
1680886053851526000,3.77552587890625,-0.115753173828125,0.016494035720825195,0.04249078035354614
1680886053861565700,3.785565673828125,-0.08833503723144531,0.02025914192199707,-0.023845374584197998
1680886053871605500,3.79560546875,-0.05670356750488281,0.04981505870819092,-0.0765024721622467
1680886053881645300,3.805645263671875,0.012070655822753906,0.029510140419006348,-0.13771435618400574
1680886053891685000,3.81568505859375,0.07976627349853516,0.04010838270187378,-0.21770313382148743
1680886053901725000,3.825724853515625,0.09700202941894531,0.003372013568878174,-0.24390405416488647
1680886053911764700,3.8357646484375,0.111724853515625,0.00478893518447876,-0.2294042408466339
1680886053921804500,3.845804443359375,0.09338092803955078,0.008429229259490967,-0.23399215936660767
1680886053931844400,3.85584423828125,0.04486370086669922,0.030797064304351807,-0.21250629425048828
1680886053941884200,3.86588427734375,0.004303932189941406,0.03632229566574097,-0.1341249942779541
1680886053951924000,3.875924072265625,-0.009677886962890625,0.05122798681259155,-0.09247750043869019
1680886053961963800,3.8859638671875,-0.009373664855957031,0.049635231494903564,-0.031622469425201416
1680886053972003800,3.89600390625,0.0025997161865234375,0.04595059156417847,-0.03616580367088318
1680886053982043400,3.90604345703125,0.04256153106689453,0.014198243618011475,-0.03722086548805237
1680886053992083500,3.91608349609375,0.04888439178466797,-0.01924818754196167,-0.06169506907463074
1680886054002123300,3.926123291015625,0.031577110290527344,-0.021274209022521973,-0.06748092174530029
1680886054012163000,3.9361630859375,0.028733253479003906,-0.04201865196228027,-0.0647786557674408
1680886054022203000,3.946202880859375,0.0000782012939453125,-0.045869529247283936,-0.0228765606880188
1680886054032242700,3.95624267578125,-0.006885528564453125,-0.026058435440063477,0.024862170219421387
1680886054042282500,3.966282470703125,-0.04435157775878906,-0.03230336308479309,0.043679118156433105
1680886054052322300,3.976322265625,-0.010594367980957031,-0.005495190620422363,0.06030982732772827
1680886054062362000,3.986362060546875,-0.015082359313964844,-0.0191650390625,0.07932204008102417
1680886054072402000,3.99640185546875,-0.014799118041992188,-0.04908996820449829,0.055880725383758545
1680886054082441700,4.006441650390625,0.0019512176513671875,-0.09511035680770874,0.05660480260848999
1680886054092481500,4.0164814453125,-0.0051212310791015625,-0.07213154435157776,0.038582026958465576
1680886054102521300,4.026521240234375,-0.0120849609375,-0.03285980224609375,0.05615359544754028
1680886054112561200,4.03656103515625,-0.04718208312988281,-0.015119194984436035,0.07312172651290894
1680886054122601000,4.04660107421875,-0.04874134063720703,-0.009196162223815918,0.05671799182891846
1680886054132640800,4.056640869140625,-0.02910327911376953,0.03447556495666504,0.07366126775741577
1680886054142680600,4.0666806640625,-0.01686573028564453,0.008970856666564941,0.08596760034561157
1680886054152720400,4.076720458984375,-0.009563446044921875,0.00013816356658935547,0.07281804084777832
1680886054162760400,4.086760498046875,-0.0023975372314453125,-0.032256126403808594,0.050874173641204834
1680886054172800000,4.096800048828125,-0.0071506500244140625,-0.016885310411453247,0.0579373836517334
1680886054182840000,4.106840087890625,-0.03538703918457031,-0.0062754154205322266,0.020305395126342773
1680886054192879900,4.1168798828125,-0.01371002197265625,0.006584107875823975,0.025545895099639893
1680886054202919700,4.126919677734375,-0.015928268432617188,0.00987464189529419,0.03752303123474121
1680886054212959500,4.13695947265625,-0.001617431640625,-0.012903720140457153,0.018637120723724365
1680886054222999300,4.146999267578125,-0.011088371276855469,0.0022434592247009277,0.01902073621749878
1680886054233039000,4.1570390625,-0.015702247619628906,0.007531166076660156,0.029121875762939453
1680886054243079000,4.167078857421875,-0.034369468688964844,-0.004050195217132568,-0.02173560857772827
1680886054253118700,4.17711865234375,-0.0032930374145507812,0.021864712238311768,-0.010114610195159912
1680886054263158500,4.187158447265625,-0.038639068603515625,0.02585834264755249,-0.019810020923614502
1680886054273198300,4.1971982421875,-0.012171745300292969,0.02966398000717163,-0.005975902080535889
1680886054283238100,4.207238037109375,-0.037933349609375,0.03357958793640137,0.009749114513397217
1680886054293278000,4.21727783203125,-0.013854026794433594,0.04019981622695923,0.0017257332801818848
1680886054303317800,4.22731787109375,0.01685810089111328,0.03530198335647583,-0.01770848035812378
1680886054313357600,4.237357666015625,0.016409873962402344,0.01914316415786743,-0.019942104816436768
1680886054323397400,4.2473974609375,0.058320045471191406,-0.005967259407043457,-0.026570618152618408
1680886054333437200,4.257437255859375,0.04303455352783203,-0.0023277997970581055,-0.03322747349739075
1680886054343477000,4.26747705078125,0.028000831604003906,-0.008078694343566895,-0.03509208559989929
1680886054353517000,4.27751708984375,0.010857582092285156,-0.02300792932510376,-0.05572420358657837
1680886054363556900,4.287556884765625,0.010460853576660156,-0.02095210552215576,-0.05237317085266113
1680886054373596700,4.2975966796875,0.012422561645507812,-0.028404414653778076,-0.01835763454437256
1680886054383636500,4.307636474609375,0.019083023071289062,-0.012377738952636719,-0.01573944091796875
1680886054393676300,4.31767626953125,0.006832122802734375,-0.022757351398468018,-0.006449282169342041
1680886054403716000,4.327716064453125,0.006585121154785156,-0.0260789692401886,-0.025976598262786865
1680886054413756000,4.337755859375,-0.007758140563964844,-0.02940484881401062,0.008555889129638672
1680886054423795700,4.347795654296875,-0.01714611053466797,-0.018485277891159058,0.023496806621551514
1680886054433835500,4.35783544921875,-0.02404022216796875,0.004088103771209717,0.024294018745422363
1680886054443875300,4.367875244140625,-0.023789405822753906,0.021526694297790527,0.021068572998046875
1680886054453915100,4.3779150390625,-0.016539573669433594,0.048087477684020996,0.04732966423034668
1680886054463955000,4.387954833984375,-0.01181793212890625,0.036578088998794556,0.036447346210479736
1680886054473994800,4.397994873046875,0.004573822021484375,0.03477281332015991,0.06143411993980408
1680886054484034600,4.40803466796875,0.013648033142089844,0.028149276971817017,0.01993107795715332
1680886054494074400,4.418074462890625,0.020270347595214844,0.019086182117462158,0.046525031328201294
1680886054504114200,4.4281142578125,0.024504661560058594,0.023871272802352905,0.024545341730117798
1680886054514154200,4.438154296875,0.03815269470214844,0.007025778293609619,0.01135513186454773
1680886054524194000,4.448194091796875,0.021010398864746094,0.015988469123840332,0.016761332750320435
1680886054534233900,4.45823388671875,0.00652313232421875,0.026852130889892578,0.024440407752990723
1680886054544273700,4.468273681640625,-0.024206161499023438,0.02075144648551941,0.008812189102172852
1680886054554313500,4.4783134765625,-0.04266834259033203,0.024095535278320312,-0.013190537691116333
1680886054564353300,4.488353271484375,-0.07027244567871094,0.027551889419555664,-0.006095677614212036
1680886054574393000,4.49839306640625,-0.03623390197753906,0.0382993221282959,-0.02235749363899231
1680886054584433000,4.508432861328125,-0.03809642791748047,0.011421740055084229,-0.03580242395401001
1680886054594472700,4.51847265625,-0.004614830017089844,0.029777973890304565,-0.03966251015663147
1680886054604512500,4.528512451171875,0.03538799285888672,0.0006823837757110596,-0.05075371265411377
1680886054614552300,4.53855224609375,0.051212310791015625,-0.0045014917850494385,-0.05748528242111206
1680886054624592100,4.548592041015625,0.045635223388671875,-0.023898303508758545,-0.06493315100669861
1680886054634632000,4.5586318359375,0.03548431396484375,-0.01231396198272705,-0.059069275856018066
1680886054644671700,4.568671630859375,0.013764381408691406,0.010904371738433838,-0.047004252672195435
1680886054654711800,4.5787119140625,-0.0028944015502929688,-0.01776731014251709,-0.02818971872329712
1680886054664751400,4.58875146484375,-0.00046825408935546875,-0.026950538158416748,0.004790365695953369
1680886054674791400,4.59879150390625,-0.0027952194213867188,-0.03834053874015808,-0.009739160537719727
1680886054684831200,4.608831298828125,0.006687164306640625,-0.0259341299533844,-0.03350833058357239
1680886054694871000,4.61887109375,0.013667106628417969,-0.03715011477470398,-0.014868766069412231
1680886054704910800,4.628910888671875,0.02525806427001953,-0.04110535979270935,0.0006810128688812256
1680886054714950700,4.63895068359375,0.01312255859375,-0.040336787700653076,0.006486862897872925
1680886054724990500,4.648990478515625,-0.0011749267578125,-0.03263354301452637,0.0266130268573761
1680886054735030300,4.6590302734375,-0.0152435302734375,-0.025229841470718384,0.05151912569999695
1680886054745070000,4.669070068359375,-0.022032737731933594,0.014944642782211304,0.05288705229759216
1680886054755110000,4.67910986328125,-0.02167224884033203,0.01460239291191101,0.038109660148620605
1680886054765149700,4.689149658203125,-0.01662731170654297,0.021496832370758057,0.040302932262420654
1680886054775189500,4.699189453125,-0.009313583374023438,0.01885390281677246,0.018923580646514893
1680886054785229300,4.709229248046875,0.021425247192382812,-0.01447606086730957,0.03086838126182556
1680886054795269000,4.71926904296875,0.030473709106445312,-0.031009912490844727,0.007363051176071167
1680886054805309000,4.729308837890625,0.02290821075439453,-0.03802835941314697,-0.01357319951057434
1680886054815349000,4.739348876953125,-0.00571441650390625,-0.016558706760406494,-0.0013817250728607178
1680886054825388800,4.749388916015625,-0.03856182098388672,-0.004754126071929932,0.0056122541427612305
1680886054835428600,4.7594287109375,-0.035559654235839844,-0.009457260370254517,0.014911860227584839
1680886054845468400,4.769468505859375,-0.04673957824707031,0.007094383239746094,-0.008772283792495728
1680886054855508200,4.77950830078125,-0.038908958435058594,-0.005068421363830566,-0.008094877004623413
1680886054865548000,4.789548095703125,-0.03122997283935547,0.02534422278404236,-0.002304643392562866
1680886054875587800,4.799587890625,-0.00484466552734375,0.05049121379852295,-0.03422805666923523
1680886054885627600,4.809627685546875,-0.00244140625,0.014304935932159424,-0.0023508965969085693
1680886054895667500,4.81966748046875,0.01874828338623047,-0.02103671431541443,-0.001733541488647461
1680886054905707300,4.829707275390625,0.041937828063964844,-0.006460666656494141,-0.0033127963542938232
1680886054915747000,4.8397470703125,0.04355335235595703,0.009996384382247925,-0.014052659273147583
1680886054925787000,4.849786865234375,0.031037330627441406,0.02842944860458374,-0.0060897767543792725
1680886054935826700,4.85982666015625,0.016402244567871094,-0.0028155148029327393,0.026978731155395508
1680886054945866500,4.869866455078125,0.018497467041015625,0.002076566219329834,0.007222861051559448
1680886054955906300,4.87990625,0.008785247802734375,-0.009527742862701416,0.03016573190689087
1680886054965946400,4.8899462890625,-0.0031423568725585938,-0.03977769613265991,0.04378733038902283
1680886054975986200,4.899986083984375,-0.010184288024902344,-0.006083756685256958,0.04365265369415283
1680886054986026000,4.91002587890625,-0.024186134338378906,-0.0012635588645935059,0.02033516764640808
1680886054996065800,4.920065673828125,0.0020666122436523438,-0.0036509037017822266,0.030430078506469727
1680886055006105600,4.930105712890625,-0.014481544494628906,-0.010715216398239136,-0.004599928855895996
1680886055016145400,4.9401455078125,-0.011914253234863281,0.008223116397857666,0.003223508596420288
1680886055026185200,4.950185302734375,-0.009416580200195312,0.012883663177490234,-0.021673262119293213
1680886055036225000,4.96022509765625,-0.004620552062988281,-0.0011844933032989502,-0.05310577154159546
1680886055046264800,4.970264892578125,0.018944740295410156,-0.007896453142166138,-0.053822726011276245
1680886055056304600,4.9803046875,0.03744697570800781,-0.002787292003631592,-0.07406604290008545
1680886055066344400,4.990344482421875,0.03448677062988281,-0.004882007837295532,-0.049894094467163086
1680886055076384300,5.00038427734375,0.02924346923828125,-0.018892526626586914,-0.031125366687774658
1680886055086424000,5.010424072265625,0.00290679931640625,-0.01401570439338684,-0.022024333477020264
1680886055096464100,5.020464111328125,-0.030076026916503906,0.007186412811279297,0.013367116451263428
1680886055106504000,5.03050390625,-0.04134845733642578,-0.00493466854095459,0.013457685708999634
1680886055116543700,5.040543701171875,-0.028902053833007812,0.013691872358322144,-0.002637714147567749
1680886055126583600,5.05058349609375,-0.03785133361816406,-0.0032404065132141113,0.02384573221206665
1680886055136623400,5.060623291015625,-0.030170440673828125,0.006252676248550415,0.014267921447753906
1680886055146663200,5.0706630859375,-0.010851860046386719,0.008822530508041382,0.03527432680130005
1680886055156703000,5.080702880859375,0.022255897521972656,0.0067563652992248535,0.05134311318397522
1680886055166742800,5.09074267578125,0.05244255065917969,0.02838727831840515,0.06502282619476318
1680886055176782600,5.100782470703125,0.09624195098876953,0.004748225212097168,0.024684935808181763
1680886055186822400,5.110822509765625,0.08989238739013672,-0.023371070623397827,-0.0033985376358032227
1680886055196862200,5.1208623046875,0.02011585235595703,-0.048830628395080566,-0.0056047141551971436
1680886055206902000,5.130902099609375,-0.03198719024658203,-0.04094955325126648,-0.015444725751876831
1680886055216941800,5.14094189453125,-0.07852363586425781,-0.04460570216178894,0.005294859409332275
1680886055226981600,5.150981689453125,-0.08430004119873047,0.008659303188323975,0.014324963092803955
1680886055237021700,5.161021728515625,-0.05470752716064453,0.0258331298828125,0.06629690527915955
1680886055247061500,5.1710615234375,0.009684562683105469,0.004921644926071167,0.07327750325202942
1680886055257101300,5.181101318359375,0.04239845275878906,0.014536619186401367,0.01936042308807373
1680886055267141000,5.19114111328125,0.05104827880859375,0.033051520586013794,-0.0007551610469818115
1680886055277181000,5.201180908203125,0.017203330993652344,0.00875881314277649,0.007249027490615845
1680886055287220700,5.211220703125,0.0004119873046875,0.03677850961685181,-0.027547627687454224
1680886055297260500,5.221260498046875,-0.032596588134765625,0.017542362213134766,-0.0004962384700775146
1680886055307300400,5.23130029296875,-0.04860687255859375,0.02705135941505432,-0.004025399684906006
1680886055317340200,5.241340087890625,-0.0337677001953125,0.03416848182678223,0.018751293420791626
1680886055327380000,5.2513798828125,-0.012118339538574219,0.0057360827922821045,0.015488028526306152
1680886055337419800,5.261419677734375,0.020944595336914062,0.015324115753173828,0.0358830988407135
1680886055347459600,5.27145947265625,0.048773765563964844,-0.006090700626373291,0.006208240985870361
1680886055357499400,5.28149951171875,0.038486480712890625,0.0010427534580230713,-0.013791054487228394
1680886055367539500,5.29153955078125,0.0283660888671875,-0.010770738124847412,-0.03569912910461426
1680886055377579000,5.3015791015625,0.008994102478027344,-0.029382765293121338,-0.06195935606956482
1680886055387619000,5.311619140625,-0.017127037048339844,-0.030961155891418457,-0.06666204333305359
1680886055397659000,5.321658935546875,-0.01689434051513672,-0.05376267433166504,-0.0646338164806366
1680886055407698700,5.33169873046875,0.0021963119506835938,-0.02927449345588684,-0.04657593369483948
1680886055417738500,5.341738525390625,-0.009603500366210938,-0.03603765368461609,-0.06224682927131653
1680886055427778300,5.3517783203125,-0.01648426055908203,-0.016799747943878174,-0.012025117874145508
1680886055437818000,5.361818115234375,-0.016204833984375,-0.01895490288734436,-0.014193832874298096
1680886055447858000,5.37185791015625,-0.0018215179443359375,-0.039794981479644775,0.0051032304763793945
1680886055457897700,5.381897705078125,0.019371986389160156,-0.020143121480941772,-0.015771597623825073
1680886055467937500,5.3919375,0.009615898132324219,-0.0314822793006897,0.008313208818435669
1680886055477977300,5.401977294921875,-0.0070362091064453125,-0.028443098068237305,0.010625898838043213
1680886055488017200,5.41201708984375,-0.025757789611816406,-0.0019099712371826172,0.010365933179855347
1680886055498057200,5.42205712890625,-0.03475475311279297,0.0031111836433410645,0.02423548698425293
1680886055508097000,5.432096923828125,-0.0012388229370117188,0.01281595230102539,0.047467589378356934
1680886055518136800,5.44213671875,0.0034656524658203125,0.0245952308177948,0.037589699029922485
1680886055528176600,5.4521767578125,0.02457714080810547,0.014875054359436035,0.02546030282974243
1680886055538216400,5.462216552734375,0.0288848876953125,0.033392876386642456,0.020238816738128662
1680886055548256300,5.47225634765625,0.019006729125976562,0.011644959449768066,0.0076818764209747314
1680886055558296000,5.482296142578125,0.009307861328125,0.013801544904708862,-0.002606600522994995
1680886055568336000,5.4923359375,0.004482269287109375,0.02304902672767639,0.020052343606948853
1680886055578375700,5.502375732421875,-0.012035369873046875,0.027316033840179443,0.009551823139190674
1680886055588415500,5.51241552734375,-0.016516685485839844,0.02439028024673462,0.011292308568954468
1680886055598455300,5.522455322265625,-0.018576622009277344,0.0002639293670654297,0.017951101064682007
1680886055608495000,5.5324951171875,-0.027672767639160156,-0.0023315250873565674,-0.001161336898803711
1680886055618535000,5.542534912109375,-0.008372306823730469,-0.007296919822692871,-0.015069812536239624
1680886055628575000,5.552574951171875,0.00354766845703125,-0.019180476665496826,-0.012388050556182861
1680886055638614800,5.56261474609375,0.0011434555053710938,-0.0024923384189605713,-0.019350677728652954
1680886055648654600,5.572654541015625,0.0011339187622070312,-0.0283372700214386,-0.014547228813171387
1680886055658694400,5.5826943359375,0.010542869567871094,-0.009024381637573242,-0.0027582645416259766
1680886055668734200,5.592734130859375,0.012734413146972656,-0.011282742023468018,0.030024945735931396
1680886055678774000,5.60277392578125,0.005467414855957031,-0.01821720600128174,0.017655938863754272
1680886055688813800,5.612813720703125,0.012449264526367188,-0.003966301679611206,0.012614637613296509
1680886055698853600,5.622853515625,0.0028371810913085938,-0.004134416580200195,0.0006508529186248779
1680886055708893400,5.6328935546875,-0.006622314453125,0.01935756206512451,0.010077148675918579
1680886055718933200,5.642933349609375,-0.013561248779296875,0.004731893539428711,-0.01137620210647583
1680886055728973000,5.65297314453125,-0.0039005279541015625,0.0021263062953948975,-0.01611649990081787
1680886055739012900,5.663012939453125,-0.0014715194702148438,-0.01209154725074768,-0.016007453203201294
1680886055749053000,5.673052978515625,-0.01555633544921875,0.009181499481201172,-0.008896619081497192
1680886055759092700,5.6830927734375,-0.0011539459228515625,-0.005212932825088501,-0.001963287591934204
1680886055769132500,5.693132568359375,0.0035982131958007812,0.00181502103805542,-0.01409110426902771
1680886055779172400,5.70317236328125,-0.01762104034423828,0.00631260871887207,0.009237140417098999
1680886055789212200,5.713212158203125,-0.010237693786621094,-0.008100956678390503,-0.0007202029228210449
1680886055799252000,5.723251953125,-0.007691383361816406,0.008324861526489258,0.0037374794483184814
1680886055809291800,5.733291748046875,-0.00519561767578125,0.003289163112640381,0.008297830820083618
1680886055819331600,5.74333154296875,-0.0027446746826171875,0.026646733283996582,0.01278221607208252
1680886055829371400,5.753371337890625,0.011440277099609375,0.016656190156936646,0.012424498796463013
1680886055839411200,5.7634111328125,0.023047447204589844,-0.0051746666431427,0.03084731101989746
1680886055849451000,5.773450927734375,0.013272285461425781,-0.0055183470249176025,-0.005059570074081421
1680886055859491000,5.783490966796875,0.0012845993041992188,-0.017442286014556885,-0.0071821510791778564
1680886055869530600,5.793530517578125,-0.024644851684570312,-0.02880549430847168,-0.01163250207901001
1680886055879570700,5.80357080078125,0.0016374588012695312,-0.023202329874038696,-0.03019583225250244
1680886055889610500,5.813610595703125,-0.014893531799316406,-0.01751023530960083,-0.018028080463409424
1680886055899650300,5.823650390625,-0.005248069763183594,-0.014385223388671875,0.003353714942932129
1680886055909690000,5.833690185546875,0.004238128662109375,-0.009011715650558472,0.010306954383850098
1680886055919730000,5.84372998046875,0.0017986297607421875,-0.001547783613204956,0.010137796401977539
1680886055929769700,5.853769775390625,-0.0029573440551757812,0.0034992098808288574,0.04063209891319275
1680886055939809500,5.8638095703125,-0.014711380004882812,0.006220489740371704,0.044904857873916626
1680886055949849300,5.873849365234375,0.006674766540527344,0.027901649475097656,0.061001211404800415
1680886055959889200,5.88388916015625,0.04418659210205078,0.01625722646713257,0.006150335073471069
1680886055969929000,5.893928955078125,0.05518531799316406,-0.009446948766708374,0.015729784965515137
1680886055979969000,5.903968994140625,0.06131744384765625,-0.027719110250473022,-0.0012185275554656982
1680886055990008800,5.9140087890625,0.010892868041992188,-0.036500483751297,-0.04926183819770813
1680886056000048600,5.924048583984375,-0.017477989196777344,-0.03347712755203247,-0.031005769968032837
1680886056010088400,5.93408837890625,-0.061862945556640625,-0.011724144220352173,-0.04813680052757263
1680886056020128300,5.944128173828125,-0.058463096618652344,0.02390936017036438,-0.01012769341468811
1680886056030168000,5.95416796875,-0.050438880920410156,0.028403431177139282,0.03719562292098999
1680886056040208000,5.964207763671875,-0.007243156433105469,0.03752288222312927,0.034477829933166504
1680886056050247700,5.97424755859375,0.0022735595703125,-0.0029450654983520508,0.015323013067245483
1680886056060287500,5.98428759765625,0.04225635528564453,0.0018705427646636963,-0.015575528144836426
1680886056070327300,5.994327392578125,0.032181739807128906,0.006375312805175781,-0.013773053884506226
1680886056080367000,6.0043671875,0.0034885406494140625,-0.008320778608322144,-0.017419815063476562
1680886056090407200,6.0144072265625,-0.015293121337890625,-0.0136527419090271,-0.01399928331375122
1680886056100446700,6.02444677734375,-0.05733203887939453,0.03047788143157959,0.03009939193725586
1680886056110486800,6.03448681640625,-0.053985595703125,0.010422229766845703,0.008377283811569214
1680886056120526600,6.044526611328125,-0.034255027770996094,-0.011538028717041016,0.01603713631629944
1680886056130566400,6.05456640625,-0.02901172637939453,-0.0045843422412872314,-0.0019759833812713623
1680886056140606200,6.064606201171875,0.02557659149169922,-0.016344189643859863,-0.024515271186828613
1680886056150646000,6.07464599609375,0.029814720153808594,-0.03232160210609436,-0.037497907876968384
1680886056160685800,6.084685791015625,0.0504913330078125,-0.012658089399337769,-0.0369085967540741
1680886056170725600,6.0947255859375,0.037896156311035156,-0.021685153245925903,-0.0039070844650268555
1680886056180765400,6.104765380859375,0.032601356506347656,-0.0024937689304351807,0.011658042669296265
1680886056190805200,6.11480517578125,0.0038633346557617188,0.01359713077545166,0.02956855297088623
1680886056200845000,6.124844970703125,-0.017335891723632812,-0.0062444210052490234,0.0028607845306396484
1680886056210885000,6.134885009765625,-0.04055309295654297,0.0047340989112854,0.05010625720024109
1680886056220925000,6.144925048828125,-0.04929542541503906,0.013411462306976318,0.04059430956840515
1680886056230964700,6.15496484375,-0.017910003662109375,-0.005826205015182495,0.012752234935760498
1680886056241004500,6.165004638671875,0.0011730194091796875,-0.031446486711502075,-0.007805049419403076
1680886056251044400,6.17504443359375,0.04116249084472656,-0.040152281522750854,-0.03585785627365112
1680886056261084200,6.185084228515625,0.035803794860839844,-0.030050843954086304,-0.010128170251846313
1680886056271124000,6.1951240234375,0.0305633544921875,0.012664079666137695,-0.025320470333099365
1680886056281163800,6.205163818359375,-0.019315719604492188,0.004982084035873413,0.004658877849578857
1680886056291203600,6.21520361328125,-0.03072071075439453,0.016079336404800415,0.01837286353111267
1680886056301243400,6.225243408203125,-0.051395416259765625,0.03169184923171997,0.009268909692764282
1680886056311283200,6.235283203125,-0.03880500793457031,-0.011639237403869629,0.02451324462890625
1680886056321323300,6.2453232421875,-0.014661788940429688,0.002429574728012085,-0.019351482391357422
1680886056331363000,6.255363037109375,0.025569915771484375,0.004734247922897339,-0.027708828449249268
1680886056341403000,6.26540283203125,0.022779464721679688,0.004882186651229858,-0.015505760908126831
1680886056351442700,6.275442626953125,0.048317909240722656,0.02621278166770935,-0.006564915180206299
1680886056361482500,6.285482421875,0.05696678161621094,0.0023401379585266113,-0.005012691020965576
1680886056371522300,6.295522216796875,0.03722095489501953,0.02112025022506714,-0.0010113120079040527
1680886056381562000,6.30556201171875,-0.0057506561279296875,-0.007611870765686035,0.024521052837371826
1680886056391602000,6.315601806640625,-0.026846885681152344,0.004268735647201538,0.014792770147323608
1680886056401641700,6.325641845703125,-0.03583335876464844,0.011366426944732666,-0.004019111394882202
1680886056411681500,6.335681640625,-0.02584075927734375,-0.005078256130218506,-0.024930715560913086
1680886056421721600,6.3457216796875,-0.016008377075195312,-0.016532331705093384,-0.015016138553619385
1680886056431761200,6.35576123046875,0.012501716613769531,-0.004191786050796509,-0.005505651235580444
1680886056441801200,6.36580126953125,0.02642059326171875,-0.011005759239196777,-0.012753993272781372
1680886056451841000,6.375841064453125,0.018930435180664062,-0.02481958270072937,0.0011793971061706543
1680886056461880800,6.385880859375,-0.00021457672119140625,-0.01951056718826294,0.017352700233459473
1680886056471920600,6.395920654296875,-0.016698837280273438,-0.021352618932724,0.000592648983001709
1680886056481960400,6.40596044921875,-0.0258636474609375,-0.03252175450325012,0.010302990674972534
1680886056492000300,6.416000244140625,-0.0254669189453125,-0.024671226739883423,0.005903273820877075
1680886056502040000,6.4260400390625,-0.01329803466796875,-0.00041046738624572754,0.001337975263595581
1680886056512080000,6.436079833984375,-0.015443801879882812,-0.0001577138900756836,0.024866223335266113
1680886056522119700,6.44611962890625,0.008358955383300781,0.009384185075759888,0.02658456563949585
1680886056532159500,6.456159423828125,0.005883216857910156,0.0092296302318573,0.01868349313735962
1680886056542199600,6.466199462890625,0.0010890960693359375,0.027790606021881104,0.027632325887680054
1680886056552239400,6.4762392578125,0.0010738372802734375,0.01773279905319214,-0.0032944679260253906
1680886056562279200,6.486279052734375,-0.006011962890625,0.01961362361907959,0.013555020093917847
1680886056572319000,6.496319091796875,-0.001209259033203125,0.011987447738647461,-0.00748443603515625
1680886056582358800,6.50635888671875,-0.0011920928955078125,-0.01198837161064148,0.021202921867370605
1680886056592398600,6.516398681640625,0.010601997375488281,-0.0002543330192565918,0.018692612648010254
1680886056602438400,6.5264384765625,-0.015470504760742188,-0.002779334783554077,-0.002612382173538208
1680886056612478200,6.536478271484375,-0.008153915405273438,-0.01690983772277832,-0.0000852346420288086
1680886056622518000,6.54651806640625,0.015511512756347656,-0.016441047191619873,0.002337843179702759
1680886056632557800,6.556557861328125,0.0034704208374023438,-0.022919267416000366,-0.03783777356147766
1680886056642597600,6.56659765625,0.024596214294433594,-0.024629175662994385,-0.030330628156661987
1680886056652637700,6.5766376953125,-0.011130332946777344,-0.021596789360046387,-0.018246054649353027
1680886056662677500,6.586677490234375,-0.01566028594970703,-0.016375958919525146,-0.006188869476318359
1680886056672717300,6.59671728515625,-0.017767906188964844,-0.018307477235794067,0.010555654764175415
1680886056682757000,6.606757080078125,-0.0010099411010742188,0.00085487961769104,-0.003397732973098755
1680886056692797000,6.616796875,-0.005726814270019531,0.014981269836425781,-0.012224435806274414
1680886056702836700,6.626836669921875,-0.005656242370605469,0.012379199266433716,-0.006764113903045654
1680886056712876500,6.63687646484375,0.008554458618164062,0.01922103762626648,-0.013502001762390137
1680886056722916400,6.646916259765625,0.010759353637695312,0.004811912775039673,-0.003757268190383911
1680886056732956200,6.6569560546875,0.027057647705078125,0.004762709140777588,-0.020183175802230835
1680886056742996000,6.666995849609375,0.0148468017578125,0.00700417160987854,-0.012964397668838501
1680886056753035800,6.677035888671875,-0.01364898681640625,0.013911277055740356,-0.03157922625541687
1680886056763075800,6.687075927734375,-0.015773773193359375,0.022944927215576172,-0.00739625096321106
1680886056773115600,6.69711572265625,0.00803375244140625,0.03176364302635193,0.01880282163619995
1680886056783155500,6.707155517578125,0.005542755126953125,0.024012327194213867,0.032856255769729614
1680886056793195300,6.7171953125,-0.008687973022460938,0.009576946496963501,0.04660174250602722
1680886056803235000,6.727235107421875,-0.006218910217285156,-0.004312187433242798,0.022498130798339844
1680886056813275000,6.73727490234375,0.007958412170410156,-0.008188337087631226,0.020090103149414062
1680886056823314700,6.747314697265625,0.024239540100097656,-0.04006516933441162,0.022480756044387817
1680886056833354500,6.7573544921875,0.044979095458984375,-0.04079800844192505,-0.0014862418174743652
1680886056843394300,6.767394287109375,0.008899688720703125,-0.05115771293640137,-0.025422334671020508
1680886056853434000,6.77743408203125,-0.024222373962402344,-0.03780278563499451,-0.0019343793392181396
1680886056863474200,6.78747412109375,-0.037962913513183594,-0.022198230028152466,-0.014150828123092651
1680886056873514000,6.797513916015625,-0.03030109405517578,0.00020059943199157715,0.007098883390426636
1680886056883553800,6.8075537109375,-0.022771835327148438,0.008041948080062866,0.023462921380996704
1680886056893593600,6.817593505859375,-0.010639190673828125,0.005976498126983643,0.023021697998046875
1680886056903633400,6.82763330078125,0.006024360656738281,0.001347273588180542,0.01759326457977295
1680886056913673200,6.837673095703125,0.0012350082397460938,0.0012649893760681152,0.007490873336791992
1680886056923713000,6.847713134765625,-0.010534286499023438,-0.008291691541671753,-0.014155179262161255
1680886056933752800,6.8577529296875,-0.019761085510253906,0.010499566793441772,-0.011718690395355225
1680886056943792600,6.867792724609375,-0.035907745361328125,0.019499123096466064,-0.011320292949676514
1680886056953832400,6.87783251953125,-0.028268814086914062,0.009512454271316528,-0.02452009916305542
1680886056963872500,6.88787255859375,-0.023130416870117188,0.013873666524887085,-0.023018091917037964
1680886056973912300,6.897912353515625,-0.003964424133300781,-0.007551610469818115,-0.03561314940452576
1680886056983952100,6.9079521484375,0.012525558471679688,-0.005016207695007324,-0.02445930242538452
1680886056993992000,6.917991943359375,0.040531158447265625,-0.00010180473327636719,-0.030451089143753052
1680886057004031700,6.92803173828125,0.03748798370361328,-0.00474238395690918,-0.013216644525527954
1680886057014071600,6.938071533203125,0.036873817443847656,0.00469893217086792,0.010383278131484985
1680886057024111400,6.948111328125,0.02922344207763672,-0.00026288628578186035,0.014523297548294067
1680886057034151200,6.958151123046875,0.016997337341308594,0.0016793012619018555,0.006947040557861328
1680886057044191000,6.96819091796875,0.0049724578857421875,-0.015306174755096436,0.027927309274673462
1680886057054230800,6.978230712890625,-0.00921630859375,-0.015534549951553345,-0.0030516982078552246
1680886057064270800,6.988270751953125,-0.02080059051513672,-0.015933364629745483,-0.028926879167556763
1680886057074310700,6.998310546875,-0.006297111511230469,-0.018618017435073853,-0.0331859290599823
1680886057084350500,7.0083505859375,-0.02028179168701172,-0.02125522494316101,-0.016307085752487183
1680886057094390300,7.018390380859375,-0.017563819885253906,-0.004773646593093872,0.004993021488189697
1680886057104430000,7.02843017578125,0.01334381103515625,-0.021292299032211304,0.0024580657482147217
1680886057114470000,7.038469970703125,0.013129234313964844,-0.018645793199539185,0.00938504934310913
1680886057124509700,7.048509765625,0.008206367492675781,-0.0066239237785339355,0.018606841564178467
1680886057134549500,7.058549560546875,0.008082389831542969,-0.01616978645324707,0.013552665710449219
1680886057144589300,7.06858935546875,-0.00852203369140625,0.005048036575317383,0.013350129127502441
1680886057154629000,7.078629150390625,-0.01779937744140625,-0.002284616231918335,-0.014857739210128784
1680886057164669200,7.088669189453125,-0.010448455810546875,0.002391219139099121,0.037450164556503296
1680886057174709000,7.098708984375,-0.0008668899536132812,0.01640862226486206,0.011194884777069092
1680886057184748800,7.108748779296875,0.0014972686767578125,-0.002645730972290039,0.003971904516220093
1680886057194788600,7.11878857421875,0.008534431457519531,0.01870056986808777,0.003811091184616089
1680886057204828400,7.128828369140625,0.00133514404296875,0.02550947666168213,-0.0035305023193359375
1680886057214868200,7.1388681640625,0.020155906677246094,0.03220236301422119,0.026861339807510376
1680886057224908000,7.148907958984375,0.012764930725097656,0.02230149507522583,0.0309123694896698
1680886057234947800,7.15894775390625,0.003147125244140625,0.02186453342437744,0.023124903440475464
1680886057244987600,7.168987548828125,0.005446434020996094,-0.006759226322174072,-0.017193734645843506
1680886057255027500,7.17902734375,0.0076999664306640625,-0.016072362661361694,-0.028472036123275757
1680886057265067500,7.189067626953125,0.0004987716674804688,-0.020457476377487183,-0.03962719440460205
1680886057275107300,7.199107421875,0.007550239562988281,-0.012936890125274658,-0.020171761512756348
1680886057285147100,7.209147216796875,-0.004342079162597656,-0.01507905125617981,-0.017575979232788086
1680886057295187000,7.21918701171875,-0.008974075317382812,-0.010066598653793335,-0.0009543895721435547
1680886057305226800,7.229226806640625,-0.004122734069824219,-0.007489234209060669,-0.014981389045715332
1680886057315266600,7.2392666015625,0.005351066589355469,-0.009665876626968384,0.03255540132522583
1680886057325306400,7.249306396484375,0.005248069763183594,-0.009511053562164307,-0.0029790401458740234
1680886057335346200,7.25934619140625,0.0074920654296875,-0.018654972314834595,-0.002552211284637451
1680886057345386000,7.269385986328125,-0.0020618438720703125,-0.01828595995903015,-0.016437560319900513
1680886057355425800,7.27942578125,-0.0020341873168945312,-0.0013794302940368652,-0.009086459875106812
1680886057365465900,7.2894658203125,0.007412910461425781,0.0034717023372650146,0.014565467834472656
1680886057375505700,7.299505615234375,-0.013911247253417969,0.013009369373321533,0.023815929889678955
1680886057385545500,7.30954541015625,-0.004277229309082031,0.008257538080215454,0.02826869487762451
1680886057395585300,7.319585205078125,-0.011275291442871094,0.010470539331436157,0.009105205535888672
1680886057405625000,7.329625,0.0006875991821289062,0.0125313401222229,0.004265457391738892
1680886057415665000,7.339664794921875,0.017174720764160156,0.007433593273162842,0.008690178394317627
1680886057425704700,7.34970458984375,0.005137443542480469,0.016540586948394775,0.0012760162353515625
1680886057435744500,7.35974462890625,-0.011411666870117188,0.02307724952697754,0.005880177021026611
1680886057445784300,7.369784423828125,-0.004141807556152344,0.01996484398841858,0.003468811511993408
1680886057455824100,7.37982421875,0.0077266693115234375,0.016778260469436646,0.0151137113571167
1680886057465864200,7.3898642578125,-0.008836746215820312,0.013400733470916748,0.017038613557815552
1680886057475904000,7.399904052734375,-0.018056869506835938,0.009958863258361816,0.0025140345096588135
1680886057485943800,7.40994384765625,-0.015370368957519531,0.016052842140197754,0.012065529823303223
1680886057495983600,7.419983642578125,0.0013513565063476562,-0.0010730624198913574,-0.03687813878059387
1680886057506023400,7.4300234375,0.0012750625610351562,0.008580416440963745,-0.035340845584869385
1680886057516063200,7.440063232421875,0.03887748718261719,-0.03806307911872864,-0.03443071246147156
1680886057526103000,7.45010302734375,0.04765605926513672,-0.04166349768638611,-0.025189310312271118
1680886057536142800,7.460142822265625,0.046924591064453125,-0.03614094853401184,0.006673187017440796
1680886057546182700,7.4701826171875,-0.0008687973022460938,-0.014702916145324707,0.02417430281639099
1680886057556222700,7.48022265625,-0.05025672912597656,-0.024344712495803833,0.030556529760360718
1680886057566262500,7.490262451171875,-0.07062053680419922,0.020551234483718872,0.04708075523376465
1680886057576302300,7.50030224609375,-0.05535697937011719,-0.00798085331916809,0.047080159187316895
1680886057586342100,7.510342041015625,-0.019166946411132812,-0.0029661357402801514,0.016480833292007446
1680886057596382000,7.5203818359375,0.009372711181640625,-0.023931175470352173,0.011992782354354858
1680886057606421800,7.530421875,0.03038787841796875,-0.021187126636505127,-0.011366128921508789
1680886057616461600,7.540461669921875,0.02988147735595703,-0.03508612513542175,-0.011029571294784546
1680886057626501400,7.55050146484375,0.00821685791015625,-0.029922574758529663,-0.018230050802230835
1680886057636541200,7.560541259765625,-0.0036649703979492188,-0.0012387335300445557,-0.009014010429382324
1680886057646581000,7.5705810546875,-0.020066261291503906,0.022309482097625732,0.014300405979156494
1680886057656621000,7.58062109375,-0.02443981170654297,0.028859823942184448,0.011869609355926514
1680886057666660900,7.590660888671875,-0.009920120239257812,0.00928419828414917,0.007540851831436157
1680886057676700700,7.60070068359375,-0.009776115417480469,0.0205804705619812,0.017645329236984253
1680886057686740500,7.610740478515625,0.004494667053222656,0.02474924921989441,-0.007973283529281616
1680886057696780300,7.6207802734375,0.004405021667480469,-0.006164222955703735,0.004142552614212036
1680886057706820000,7.630820068359375,0.03256702423095703,0.01070377230644226,0.006456911563873291
1680886057716860000,7.64085986328125,0.041419029235839844,0.01793825626373291,-0.014756202697753906
1680886057726899700,7.650899658203125,0.04304981231689453,0.006403565406799316,-0.023794591426849365
1680886057736939500,7.660939453125,0.039947509765625,-0.02364906668663025,-0.009323209524154663
1680886057746979300,7.670979248046875,0.025146484375,-0.024945050477981567,-0.030883610248565674
1680886057757019400,7.681019287109375,-0.0035152435302734375,-0.035748809576034546,-0.007596760988235474
1680886057767059200,7.69105908203125,-0.015219688415527344,-0.03936886787414551,-0.0011183321475982666
1680886057777099000,7.70109912109375,-0.047936439514160156,-0.007553964853286743,-0.02264714241027832
1680886057787138800,7.711138916015625,-0.011847496032714844,0.009602785110473633,-0.003497898578643799
1680886057797178600,7.7211787109375,-0.004603385925292969,0.014691799879074097,0.022229433059692383
1680886057807218400,7.731218505859375,0.009614944458007812,0.000562131404876709,0.018870562314987183
1680886057817258200,7.74125830078125,0.0071544647216796875,0.0121995210647583,0.012812227010726929
1680886057827298000,7.751298095703125,0.007109642028808594,0.00444456934928894,-0.007317692041397095
1680886057837338000,7.761338134765625,-0.03060150146484375,-0.01531141996383667,-0.0008562803268432617
1680886057847378000,7.7713779296875,-0.04416942596435547,-0.001900017261505127,-0.005503803491592407
1680886057857417700,7.781417724609375,-0.052855491638183594,0.02553647756576538,-0.023261308670043945
1680886057867457500,7.79145751953125,-0.04495811462402344,0.003487825393676758,-0.00022688508033752441
1680886057877497300,7.801497314453125,-0.018372535705566406,0.022243469953536987,-0.03890645503997803
1680886057887537200,7.811537109375,0.017206192016601562,0.007845818996429443,-0.013908684253692627
1680886057897577000,7.821576904296875,0.05927562713623047,0.00781327486038208,-0.02746635675430298
1680886057907616800,7.83161669921875,0.053582191467285156,0.0076097846031188965,0.020110368728637695
1680886057917656600,7.841656494140625,0.05034923553466797,0.01664954423904419,0.029109060764312744
1680886057927696400,7.8516962890625,0.0142364501953125,0.018293678760528564,0.061210691928863525
1680886057937736200,7.861736083984375,-0.009503364562988281,0.017443567514419556,0.04815971851348877
1680886057947776300,7.8717763671875,-0.030508041381835938,-0.016286760568618774,0.014368534088134766
1680886057957816000,7.881816162109375,-0.025298118591308594,-0.016372770071029663,0.01703736186027527
1680886057967855900,7.89185595703125,-0.0060672760009765625,-0.028163939714431763,-0.003591299057006836
1680886057977895700,7.901895751953125,0.024636268615722656,-0.023391813039779663,-0.024235934019088745
1680886057987935500,7.911935546875,0.012480735778808594,0.00013706088066101074,-0.0310039222240448
1680886057997975300,7.921975341796875,0.005237579345703125,-0.004802405834197998,-0.014350146055221558
1680886058008015000,7.93201513671875,0.009874343872070312,0.004578262567520142,0.009212523698806763
1680886058018055000,7.942054931640625,0.0026483535766601562,-0.007334291934967041,0.016147881746292114
1680886058028095000,7.952094970703125,0.007305145263671875,-0.002571582794189453,0.011435478925704956
1680886058038134800,7.962134765625,-0.009302139282226562,-0.0002987086772918701,-0.0026181042194366455
1680886058048174600,7.972174560546875,-0.0044384002685546875,-0.005247026681900024,0.000044852495193481445
1680886058058214400,7.98221435546875,0.0003376007080078125,0.00883600115776062,0.0003121793270111084
1680886058068254200,7.992254150390625,-0.013798713684082031,0.010910660028457642,-0.0017761588096618652
1680886058078294000,8.0022939453125,-0.01594829559326172,-0.0010564327239990234,-0.012951642274856567
1680886058088333800,8.012333740234375,-0.006297111511230469,0.008425295352935791,0.011428117752075195
1680886058098373600,8.02237353515625,-0.0015249252319335938,0.029576361179351807,0.01203945279121399
1680886058108413400,8.032413330078125,0.014951705932617188,0.012713104486465454,0.017048239707946777
1680886058118453500,8.04245361328125,0.012331008911132812,0.014959096908569336,-0.0112152099609375
1680886058128493300,8.052493408203125,0.009772300720214844,0.000626683235168457,0.012433856725692749
1680886058138533000,8.062533203125,0.004914283752441406,0.01007506251335144,-0.002214372158050537
1680886058148573000,8.072572998046875,-0.009281158447265625,0.00047343969345092773,-0.002434253692626953
1680886058158612700,8.08261279296875,0.007357597351074219,0.0027385056018829346,-0.00005441904067993164
1680886058168652500,8.092652587890624,-0.021017074584960938,-0.02563875913619995,0.0024036765098571777
1680886058178692400,8.1026923828125,-0.006552696228027344,0.010081887245178223,0.012057363986968994
1680886058188732200,8.112732177734374,0.0006017684936523438,-0.013583391904830933,-0.01135551929473877
1680886058198772000,8.12277197265625,0.00292205810546875,-0.017897337675094604,-0.01084214448928833
1680886058208811800,8.132811767578126,-0.004214286804199219,-0.022083133459091187,0.015561819076538086
1680886058218851800,8.142851806640625,0.014668464660644531,-0.007360219955444336,-0.017453134059906006
1680886058228891600,8.1528916015625,-0.013844490051269531,-0.004656344652175903,0.011235296726226807
1680886058238931500,8.162931396484375,-0.0018634796142578125,-0.018417924642562866,0.013549387454986572
1680886058248971300,8.17297119140625,0.007555961608886719,0.024606943130493164,-0.00759616494178772
1680886058259011000,8.183010986328124,0.005055427551269531,-0.015605509281158447,0.013933151960372925
1680886058269051000,8.19305078125,0.0072994232177734375,-0.012831151485443115,0.002321869134902954
1680886058279090700,8.203090576171874,0.004807472229003906,0.0014910399913787842,0.030925393104553223
1680886058289130500,8.213130615234375,0.004715919494628906,-0.0033153891563415527,0.007197976112365723
1680886058299170600,8.223170654296876,-0.009493827819824219,-0.005692809820175171,0.0025874972343444824
1680886058309210400,8.23321044921875,0.0024261474609375,-0.0056764185428619385,0.028717368841171265
1680886058319250200,8.243250244140626,-0.01410675048828125,0.003751218318939209,-0.006673544645309448
1680886058329290000,8.2532900390625,-0.011536598205566406,0.006015479564666748,-0.03199589252471924
1680886058339329800,8.263329833984375,-0.009009361267089844,-0.0012364089488983154,0.00202062726020813
1680886058349369600,8.27336962890625,0.0028896331787109375,-0.0036589503288269043,-0.0021379292011260986
1680886058359409400,8.283409423828125,-0.006596565246582031,-0.013103693723678589,0.007898002862930298
1680886058369449200,8.29344921875,-0.0041446685791015625,-0.010679006576538086,-0.001184910535812378
1680886058379489000,8.303489013671875,0.010036468505859375,0.008189976215362549,-0.003059685230255127
1680886058389529000,8.313529052734374,-0.004258155822753906,0.017274022102355957,-0.005086004734039307
1680886058399568600,8.323568603515625,0.007586479187011719,0.005016237497329712,0.004577428102493286
1680886058409608700,8.333608642578126,-0.004307746887207031,0.007090538740158081,0.002305924892425537
1680886058419648500,8.3436484375,-0.013661384582519531,0.0021856725215911865,-0.023351728916168213
1680886058429688300,8.353688232421876,-0.008736610412597656,-0.011995255947113037,0.005564659833908081
1680886058439728000,8.36372802734375,0.0008087158203125,0.0023079216480255127,-0.012963831424713135
1680886058449768000,8.373767822265625,-0.013346672058105469,0.002311795949935913,-0.010060638189315796
1680886058459807700,8.383807861328124,-0.010788917541503906,-0.0046880245208740234,-0.018976807594299316
1680886058469847600,8.39384765625,0.0058612823486328125,-0.011632710695266724,-0.009084820747375488
1680886058479887400,8.403887451171874,0.0033960342407226562,-0.01134270429611206,-0.01818832755088806
1680886058489927400,8.413927490234375,0.0009822845458984375,-0.03707164525985718,-0.003657102584838867
1680886058499967200,8.42396728515625,0.0033130645751953125,-0.0010394752025604248,-0.0318085253238678
1680886058510007000,8.434007080078125,-0.008523941040039062,-0.00792434811592102,0.008839935064315796
1680886058520046800,8.444046875,-0.015462875366210938,-0.002744019031524658,0.008727669715881348
1680886058530086700,8.454086669921875,-0.010534286499023438,-0.004594683647155762,0.02539151906967163
1680886058540126500,8.46412646484375,-0.010400772094726562,0.012424260377883911,0.015993505716323853
1680886058550166300,8.474166259765624,0.0014972686767578125,-0.008574336767196655,0.018649816513061523
1680886058560206000,8.4842060546875,0.006140708923339844,-0.010568857192993164,0.014320164918899536
1680886058570246000,8.494245849609374,0.008358955383300781,-0.0055291056632995605,0.0052391886711120605
1680886058580286000,8.504285888671875,-0.005934715270996094,-0.007633388042449951,0.005605518817901611
1680886058590325800,8.51432568359375,-0.0035066604614257812,-0.01670616865158081,0.008201956748962402
1680886058600365600,8.524365478515625,-0.0011119842529296875,0.007266879081726074,-0.022315770387649536
1680886058610405400,8.5344052734375,0.0036106109619140625,0.009470522403717041,0.001709580421447754
1680886058620445200,8.544445068359375,0.0012044906616210938,0.01146051287651062,-0.019454210996627808
1680886058630485000,8.554485107421876,-0.0011606216430664062,-0.005536705255508423,-0.014248162508010864
1680886058640524800,8.56452490234375,-0.031764984130859375,-0.0007012486457824707,-0.018318593502044678
1680886058650564600,8.574564697265625,-0.03128528594970703,0.011531591415405273,-0.0032546520233154297
1680886058660604700,8.584604736328124,0.0068378448486328125,0.023978471755981445,0.009080201387405396
1680886058670644500,8.59464453125,0.046672821044921875,0.024562299251556396,-0.002329587936401367
1680886058680684300,8.604684326171874,0.0693655014038086,-0.014884859323501587,0.0005759894847869873
1680886058690724000,8.61472412109375,0.07522392272949219,-0.020954102277755737,-0.0038624703884124756
1680886058700764000,8.624763916015626,0.048050880432128906,-0.055467426776885986,-0.050897449254989624
1680886058710803700,8.6348037109375,-0.004538536071777344,-0.04485011100769043,-0.012754291296005249
1680886058720843500,8.644843505859376,-0.058594703674316406,-0.02028709650039673,-0.032039761543273926
1680886058730883300,8.65488330078125,-0.07409858703613281,0.02759048342704773,-0.01551961898803711
1680886058740923100,8.664923095703125,-0.05405235290527344,0.03724139928817749,0.017437756061553955
1680886058750963200,8.674963134765624,-0.010816574096679688,0.02571803331375122,0.026542603969573975
1680886058761003000,8.6850029296875,0.008136749267578125,-0.006680667400360107,0.05932965874671936
1680886058771042800,8.695042724609374,0.02911853790283203,-0.00798863172531128,0.009462505578994751
1680886058781082600,8.70508251953125,0.04976654052734375,0.0022732019424438477,0.00031560659408569336
1680886058791122400,8.715122314453126,0.018314361572265625,-0.001984208822250366,0.0025469958782196045
1680886058801162200,8.725162353515625,-0.019666671752929688,-0.02505543828010559,0.03051087260246277
1680886058811202000,8.7352021484375,-0.052329063415527344,0.0017549693584442139,0.03958800435066223
1680886058821241900,8.745241943359375,-0.03503704071044922,0.002222299575805664,0.03503751754760742
1680886058831281700,8.75528173828125,-0.02039623260498047,0.011972934007644653,0.056762367486953735
1680886058841321700,8.76532177734375,0.010503768920898438,-0.016408711671829224,0.044997960329055786
1680886058851361500,8.775361572265625,0.024438858032226562,0.0024692118167877197,-0.006942719221115112
1680886058861401300,8.7854013671875,0.031114578247070312,-0.0028095245361328125,-0.020816653966903687
1680886058871441200,8.795441162109375,0.01886749267578125,-0.01053398847579956,-0.01597684621810913
1680886058881481000,8.80548095703125,0.023313522338867188,-0.004068702459335327,-0.006621509790420532
1680886058891520800,8.815520751953125,0.006496429443359375,-0.028379857540130615,-0.00906941294670105
1680886058901560600,8.825560546875,0.011141777038574219,-0.002909243106842041,-0.04425549507141113
1680886058911600400,8.835600341796875,-0.012538909912109375,-0.013173520565032959,-0.031832993030548096
1680886058921640200,8.84564013671875,-0.012280464172363281,-0.004374176263809204,-0.04798588156700134
1680886058931680000,8.855679931640625,-0.01438140869140625,-0.01437804102897644,-0.01931673288345337
1680886058941720000,8.865719970703125,-0.004681587219238281,-0.005325198173522949,0.006582289934158325
1680886058951760000,8.875759765625,0.009570121765136719,0.008167177438735962,-0.015034258365631104
1680886058961799700,8.885799560546875,0.025945663452148438,-0.032652854919433594,-0.022401243448257446
1680886058971839500,8.895839599609374,0.013805389404296875,-0.0021615326404571533,-0.041540175676345825
1680886058981879300,8.90587939453125,-0.0004911422729492188,0.0019920766353607178,-0.006222277879714966
1680886058991919000,8.915919189453126,-0.01691913604736328,0.011025935411453247,-0.00904795527458191
1680886059001959000,8.925958984375,-0.030739784240722656,0.010674506425857544,-0.006888031959533691
1680886059011998700,8.935998779296876,-0.032573699951171875,0.024574697017669678,0.0048857033252716064
1680886059022038800,8.946038818359375,-0.0037784576416015625,0.005284428596496582,0.014226973056793213
1680886059032078600,8.95607861328125,0.0010051727294921875,0.02156972885131836,0.016173064708709717
1680886059042118400,8.966118408203124,0.015139579772949219,0.0046221911907196045,0.015440523624420166
1680886059052158200,8.976158203125,0.03140830993652344,0.0019644498825073242,0.04273459315299988
1680886059062198000,8.986197998046874,0.021521568298339844,0.017999857664108276,0.015376955270767212
1680886059072237800,8.99623779296875,-0.011752128601074219,0.014931827783584595,0.03815218806266785
1680886059082277600,9.006277587890626,-0.004459381103515625,0.00013878941535949707,0.01600092649459839
1680886059092317400,9.0163173828125,-0.02319812774658203,0.018669039011001587,0.03206288814544678
1680886059102357200,9.026357177734376,-0.036914825439453125,0.006342202425003052,-0.02047055959701538
1680886059112397300,9.036397216796875,-0.015096664428710938,-0.022140562534332275,-0.015627741813659668
1680886059122437000,9.04643701171875,0.008708953857421875,-0.007708907127380371,-0.022642463445663452
1680886059132477000,9.056476806640624,-0.0008459091186523438,-0.007642924785614014,-0.012942910194396973
1680886059142516700,9.066516845703125,0.022714614868164062,-0.04047521948814392,-0.015178918838500977
1680886059152556500,9.076556640625,0.029409408569335938,-0.011663973331451416,0.0061584413051605225
1680886059162596400,9.086596435546875,0.014803886413574219,-0.016294270753860474,-0.01994079351425171
1680886059172636200,9.09663623046875,-0.008976936340332031,-0.01848536729812622,-0.00788775086402893
1680886059182676000,9.106676025390625,0.017078399658203125,-0.008866369724273682,0.00154837965965271
1680886059192715800,9.1167158203125,0.005039215087890625,-0.02065703272819519,-0.005708217620849609
1680886059202755800,9.126755859375,-0.006794929504394531,-0.011122405529022217,-0.00819447636604309
1680886059212795600,9.136795654296876,-0.009012222290039062,-0.011160880327224731,0.003424018621444702
1680886059222835500,9.14683544921875,-0.006481170654296875,0.012284338474273682,-0.01340147852897644
1680886059232875300,9.156875244140625,0.0007152557373046875,-0.01162979006767273,0.0052513182163238525
1680886059242915000,9.1669150390625,-0.011040687561035156,-0.002242952585220337,-0.004601001739501953
1680886059252955000,9.176954833984375,0.0032958984375,0.004635900259017944,0.00683671236038208
1680886059262994700,9.18699462890625,0.0032672882080078125,0.009102225303649902,-0.0007468163967132568
1680886059273034500,9.197034423828125,0.015007972717285156,0.0016589462757110596,0.01310756802558899
1680886059283074600,9.207074462890626,-0.004059791564941406,-0.008017092943191528,0.010431498289108276
1680886059293114400,9.2171142578125,0.0054378509521484375,-0.0034093260765075684,0.010216116905212402
1680886059303154200,9.227154296875,0.0171356201171875,-0.0035893619060516357,0.021660298109054565
1680886059313194000,9.237194091796875,0.009809494018554688,-0.003769010305404663,0.018732458353042603
1680886059323233800,9.24723388671875,0.0049686431884765625,0.0077637434005737305,0.008675843477249146
1680886059333273600,9.257273681640624,-0.013914108276367188,0.00027063488960266113,0.017502427101135254
1680886059343313400,9.2673134765625,0.002834320068359375,0.0023192763328552246,-0.002127408981323242
1680886059353353200,9.277353271484374,0.0028104782104492188,0.004454314708709717,0.011702686548233032
1680886059363393000,9.28739306640625,-0.006634712219238281,0.0019069910049438477,0.0065247416496276855
1680886059373433000,9.29743310546875,0.0005474090576171875,0.01599946618080139,0.0014920532703399658
1680886059383473000,9.307472900390625,0.0005426406860351562,0.0015503764152526855,0.013196676969528198
1680886059393512700,9.3175126953125,-0.011231422424316406,-0.0056543052196502686,-0.008193612098693848
1680886059403552500,9.327552490234375,-0.0016345977783203125,-0.005555689334869385,0.008554816246032715
1680886059413592300,9.33759228515625,-0.006319999694824219,-0.007807612419128418,0.029667586088180542
1680886059423632100,9.347632080078125,-0.015625953674316406,-0.010080993175506592,0.02206021547317505
1680886059433672000,9.357671875,0.0034656524658203125,0.0019240379333496094,-0.0230846107006073
1680886059443711700,9.367711669921874,0.010478973388671875,-0.0028120577335357666,0.005388081073760986
1680886059453751800,9.377751708984375,0.019735336303710938,0.006597042083740234,0.007372140884399414
1680886059463791600,9.38779150390625,0.012359619140625,0.011138200759887695,-0.00009077787399291992
1680886059473831400,9.39783154296875,-0.001956939697265625,-0.01029244065284729,-0.019200265407562256
1680886059483871200,9.407871337890626,-0.00428009033203125,-0.005292832851409912,-0.018980741500854492
1680886059493911000,9.4179111328125,-0.01598358154296875,0.006683439016342163,-0.016348809003829956
1680886059503950800,9.427950927734376,-0.00394439697265625,0.011338502168655396,-0.016173899173736572
1680886059513990700,9.43799072265625,-0.013291358947753906,0.004019111394882202,-0.011225730180740356
1680886059524030500,9.448030517578125,-0.013056755065917969,0.0014174580574035645,-0.015841692686080933
1680886059534070300,9.4580703125,-0.0010519027709960938,0.005924403667449951,0.012516200542449951
1680886059544110300,9.4681103515625,-0.01986217498779297,0.003526836633682251,0.042699575424194336
1680886059554150100,9.478150146484374,-0.01247406005859375,0.003636091947555542,0.020770341157913208
1680886059564190000,9.48818994140625,0.013609886169433594,-0.0009112656116485596,0.022990316152572632
1680886059574229800,9.498229736328126,0.03689289093017578,0.02298814058303833,-0.002962052822113037
1680886059584269600,9.50826953125,0.04095649719238281,-0.026429176330566406,-0.019185960292816162
1680886059594309400,9.518309326171876,0.02142620086669922,-0.025517791509628296,-0.03556111454963684
1680886059604349200,9.52834912109375,-0.00010013580322265625,-0.038864701986312866,-0.019294381141662598
1680886059614389000,9.538388916015625,-0.025969505310058594,-0.021438270807266235,0.008407413959503174
1680886059624428800,9.5484287109375,-0.042003631591796875,-0.0020017921924591064,-0.004025757312774658
1680886059634468900,9.55846875,-0.022472381591796875,0.03347495198249817,0.014762818813323975
1680886059644508700,9.5685087890625,-0.005627632141113281,0.014146775007247925,0.01700344681739807
1680886059654548500,9.578548583984375,-0.0031824111938476562,0.02809426188468933,0.026157230138778687
1680886059664588300,9.58858837890625,0.008653640747070312,0.02762511372566223,-0.002803593873977661
1680886059674628000,9.598628173828125,0.013247489929199219,-0.0058539509773254395,-0.012742966413497925
1680886059684668000,9.60866796875,0.0012950897216796875,-0.012991458177566528,-0.029703080654144287
1680886059694707700,9.618707763671875,-0.017516136169433594,-0.020125240087509155,-0.006303131580352783
1680886059704747500,9.62874755859375,-0.03367900848388672,0.005818665027618408,0.0006402432918548584
1680886059714787600,9.63878759765625,-0.05666542053222656,0.0008408427238464355,-0.020248860120773315
1680886059724827400,9.648827392578125,-0.03219795227050781,-0.003992348909378052,0.0018186569213867188
1680886059734867200,9.6588671875,-0.012852668762207031,0.0007280707359313965,-0.004670143127441406
1680886059744907000,9.668906982421875,0.00617218017578125,0.0030129551887512207,0.0006641745567321777
1680886059754946800,9.67894677734375,0.015481948852539062,-0.01834389567375183,-0.015570074319839478
1680886059764986600,9.688986572265625,0.024631500244140625,-0.013386964797973633,-0.003286302089691162
1680886059775026400,9.6990263671875,0.012455940246582031,0.0031404197216033936,0.013324230909347534
1680886059785066200,9.709066162109375,0.0099029541015625,-0.008917033672332764,-0.005655020475387573
1680886059795106000,9.71910595703125,0.012105941772460938,-0.009117811918258667,-0.0007789134979248047
1680886059805146000,9.72914599609375,0.004863739013671875,-0.025915175676345825,-0.014873653650283813
1680886059815186000,9.73918603515625,-0.0022449493408203125,-0.012007594108581543,-0.017018556594848633
1680886059825225700,9.749225830078124,-0.0115814208984375,-0.019693881273269653,-0.005005449056625366
1680886059835265500,9.759265625,-0.023122787475585938,0.005886346101760864,-0.0003170967102050781
1680886059845305300,9.769305419921874,-0.02035808563232422,-0.006452709436416626,-0.00977015495300293
1680886059855345200,9.77934521484375,-0.005881309509277344,-0.0019324719905853271,-0.004819601774215698
1680886059865385000,9.789385009765626,-0.0010700225830078125,0.02152019739151001,0.014117598533630371
1680886059875424800,9.7994248046875,0.013082504272460938,0.002152860164642334,-0.00028440356254577637
1680886059885464600,9.809464599609376,0.027002334594726562,-0.012180685997009277,-0.00038310885429382324
1680886059895504600,9.819504638671875,-0.001678466796875,-0.005149215459823608,-0.012307137250900269
1680886059905544400,9.82954443359375,-0.01105499267578125,0.018300771713256836,-0.0192621648311615
1680886059915584300,9.839584228515625,-0.010873794555664062,0.0061675310134887695,-0.014097422361373901
1680886059925624000,9.8496240234375,-0.013049125671386719,0.02483844757080078,0.019234567880630493
1680886059935663900,9.859663818359374,-0.0010633468627929688,0.0031768381595611572,0.0025728940963745117
1680886059945703700,9.86970361328125,0.008370399475097656,0.005415529012680054,0.02144584059715271
1680886059955743500,9.879743408203124,0.0176544189453125,0.0123843252658844,0.023289024829864502
1680886059965783300,9.889783203125,0.019721031188964844,0.009881734848022461,0.0014976263046264648
1680886059975823400,9.8998232421875,-0.0017852783203125,0.01918920874595642,-0.0011530518531799316
1680886059985863200,9.90986328125,0.01708698272705078,-0.0022656023502349854,0.015077054500579834
1680886059995903000,9.919903076171876,-0.018492698669433594,-0.0023546814918518066,-0.004273444414138794
1680886060005942800,9.92994287109375,0.012431144714355469,0.0069771409034729,-0.011356443166732788
1680886060015982600,9.939982666015625,-0.016023635864257812,-0.009683728218078613,-0.020557641983032227
1680886060026022400,9.9500224609375,-0.013406753540039062,-0.007171690464019775,0.0010550320148468018
1680886060036062200,9.960062255859375,-0.0037794113159179688,-0.021062999963760376,0.005887061357498169
1680886060046102000,9.97010205078125,-0.006091117858886719,-0.011062860488891602,0.017760097980499268
1680886060056141800,9.980141845703125,0.005763053894042969,-0.0012267231941223145,-0.00829380750656128
1680886060066182000,9.990181884765626,0.01271820068359375,-0.0034381747245788574,0.003747791051864624
1680886060076221700,10.0002216796875,0.0007228851318359375,-0.03392738103866577,-0.0031800270080566406
1680886060086261500,10.010261474609376,0.012475013732910156,-0.021594524383544922,-0.0006316304206848145
1680886060096301300,10.02030126953125,-0.004215240478515625,0.0022475123405456543,0.008933961391448975
1680886060106341000,10.030341064453125,-0.011208534240722656,-0.009623467922210693,0.0018047690391540527
1680886060116381000,10.040380859375,-0.0039577484130859375,0.004596918821334839,0.0041551291942596436
1680886060126420700,10.050420654296875,-0.003887176513671875,0.016226083040237427,0.0016990303993225098
1680886060136460500,10.06046044921875,0.0032501220703125,-0.0029994547367095947,0.00863867998123169
1680886060146500600,10.07050048828125,0.0032062530517578125,0.0016964077949523926,0.013049513101577759
1680886060156540400,10.08054052734375,-0.006258964538574219,0.00872713327407837,-0.010804533958435059
1680886060166580200,10.090580322265625,0.017386436462402344,0.0015128850936889648,0.012943774461746216
1680886060176620000,10.1006201171875,0.005320549011230469,-0.0032269954681396484,-0.017791301012039185
1680886060186659800,10.110659912109375,0.009929656982421875,-0.00782620906829834,-0.01258617639541626
1680886060196699600,10.12069970703125,-0.006730079650878906,-0.002873033285140991,0.001949012279510498
1680886060206739500,10.130739501953125,-0.006627082824707031,-0.01689225435256958,-0.014424562454223633
1680886060216779300,10.140779296875,0.0005388259887695312,-0.0024274885654449463,-0.009396463632583618
1680886060226819000,10.150819091796874,-0.00653076171875,0.01885882019996643,-0.01169160008430481
1680886060236859100,10.160859130859375,-0.0017099380493164062,-0.004942059516906738,0.011891663074493408
1680886060246899000,10.17089892578125,0.005381584167480469,-0.007161170244216919,0.013956010341644287
1680886060256938800,10.180938720703125,0.0029315948486328125,0.004840880632400513,0.009041249752044678
1680886060266978600,10.190978515625,0.0028791427612304688,0.007113456726074219,0.00426146388053894
1680886060277018400,10.201018310546875,-0.011300086975097656,0.002344578504562378,-0.0004386603832244873
1680886060287058200,10.21105810546875,0.0006504058837890625,0.007012993097305298,0.01624530553817749
1680886060297098000,10.221097900390625,0.010044097900390625,0.0022431015968322754,0.02794569730758667
1680886060307137800,10.2311376953125,0.009865760803222656,-0.007214665412902832,-0.007573872804641724
1680886060317177600,10.241177490234374,0.009693145751953125,-0.011809051036834717,-0.0001819133758544922
1680886060327217700,10.2512177734375,-0.0022459030151367188,0.00014990568161010742,0.030572861433029175
1680886060337257500,10.261257568359374,0.0024957656860351562,0.01191478967666626,-0.007521539926528931
1680886060347297300,10.27129736328125,0.0024557113647460938,-0.011826664209365845,-0.023914188146591187
1680886060357337000,10.281337158203126,0.004764556884765625,0.0025510191917419434,0.004758059978485107
1680886060367377000,10.291376953125,0.0046844482421875,-0.009325027465820312,0.0071152448654174805
1680886060377416700,10.301416748046876,0.0022554397583007812,0.009539783000946045,-0.014105916023254395
1680886060387456500,10.31145654296875,-0.00484466552734375,0.016319245100021362,0.005106985569000244
1680886060397496300,10.321496337890625,-0.011829376220703125,-0.005267322063446045,0.007582187652587891
1680886060407536400,10.331536376953125,-0.011643409729003906,-0.0004799962043762207,0.007720887660980225
1680886060417576200,10.341576171875,-0.0067577362060546875,-0.00041925907135009766,0.000850677490234375
1680886060427616000,10.351615966796874,0.016877174377441406,-0.0003005564212799072,-0.003550797700881958
1680886060437655800,10.36165576171875,0.014229774475097656,-0.00017851591110229492,0.022542864084243774
1680886060447695600,10.371695556640624,0.013985633850097656,0.018772363662719727,0.012773662805557251
1680886060457735400,10.3817353515625,0.009037017822265625,0.009154409170150757,-0.018017500638961792
1680886060467775200,10.391775146484376,0.00417327880859375,-0.02161160111427307,-0.003503859043121338
1680886060477815000,10.40181494140625,0.0017461776733398438,0.004635900259017944,-0.012774050235748291
1680886060487854800,10.411854736328126,-0.0029888153076171875,-0.016581714153289795,-0.01735532283782959
1680886060497895000,10.42189501953125,-0.014711380004882812,-0.011552155017852783,-0.031215131282806396
1680886060507934700,10.431934814453125,-0.028598785400390625,0.007580399513244629,-0.014183372259140015
1680886060517974500,10.441974609375,-0.006943702697753906,0.012204647064208984,-0.002020031213760376
1680886060528014300,10.452014404296875,-0.032729148864746094,0.00486031174659729,-0.011185258626937866
1680886060538054100,10.46205419921875,-0.00157928466796875,0.016418248414993286,-0.001429051160812378
1680886060548094000,10.472093994140625,-0.0015592575073242188,-0.000348895788192749,0.02464395761489868
1680886060558133800,10.4821337890625,-0.006264686584472656,-0.02607649564743042,0.010437935590744019
1680886060568173600,10.492173583984375,0.019693374633789062,0.0006555318832397461,0.01076778769493103
1680886060578213600,10.502213623046876,0.049918174743652344,0.008287966251373291,-0.0006817877292633057
1680886060588253400,10.51225341796875,0.04196929931640625,-0.007571786642074585,0.004420936107635498
1680886060598293200,10.522293212890625,0.02710437774658203,-0.013629764318466187,-0.016932189464569092
1680886060608333000,10.5323330078125,0.026656150817871094,-0.012811124324798584,-0.005628228187561035
1680886060618372900,10.542372802734375,-0.016137123107910156,-0.014472991228103638,-0.008997559547424316
1680886060628412700,10.55241259765625,-0.04646015167236328,-0.016109824180603027,0.0044664740562438965
1680886060638452500,10.562452392578125,-0.04570484161376953,0.02465355396270752,-0.00041684508323669434
1680886060648492300,10.5724921875,-0.023797035217285156,-0.008304238319396973,0.014207422733306885
1680886060658532000,10.582531982421875,0.009516716003417969,0.003952711820602417,0.03806948661804199
1680886060668572200,10.592572265625,0.014043807983398438,0.0016980767250061035,-0.011676281690597534
1680886060678612000,10.602612060546875,0.01381683349609375,-0.003050088882446289,-0.01868915557861328
1680886060688651800,10.61265185546875,0.011260032653808594,-0.010121762752532959,-0.03307217359542847
1680886060698691600,10.622691650390625,-0.026559829711914062,0.0039968788623809814,-0.01425960659980774
1680886060708731400,10.6327314453125,-0.023744583129882812,0.0014035701751708984,-0.014243245124816895
1680886060718771200,10.642771240234374,-0.04455280303955078,-0.008152782917022705,0.01237952709197998
1680886060728811000,10.65281103515625,-0.03444194793701172,0.008464157581329346,0.0014809966087341309
1680886060738850800,10.662850830078124,-0.008029937744140625,0.0013801157474517822,0.007361322641372681
1680886060748890600,10.672890625,0.0061817169189453125,-0.015064269304275513,0.008202314376831055
1680886060758930700,10.6829306640625,0.00841522216796875,-0.014929443597793579,-0.01021990180015564
1680886060768970500,10.692970458984375,0.022396087646484375,-0.0030206143856048584,0.013680964708328247
1680886060779010300,10.70301025390625,0.01967906951904297,0.001568138599395752,0.02753084897994995
1680886060789050000,10.713050048828125,-0.008876800537109375,-0.010460525751113892,0.024496495723724365
1680886060799090000,10.72308984375,0.000705718994140625,0.017671048641204834,0.01457098126411438
1680886060809129700,10.733129638671874,-0.018129348754882812,-0.018296360969543457,0.030951619148254395
1680886060819169500,10.74316943359375,-0.0013370513916015625,-0.023241907358169556,-0.00449138879776001
1680886060829209300,10.753209228515624,-0.020130157470703125,-0.007153064012527466,-0.039284735918045044
1680886060839249400,10.76324951171875,0.006133079528808594,0.011024504899978638,-0.017295122146606445
1680886060849289200,10.773289306640624,0.00136566162109375,0.0007666349411010742,-0.02192196249961853
1680886060859329000,10.7833291015625,0.008449554443359375,0.004979193210601807,-0.000808417797088623
1680886060869368800,10.793368896484376,0.02011394500732422,-0.0001747608184814453,0.00117570161819458
1680886060879408600,10.80340869140625,0.029219627380371094,-0.009953796863555908,0.017490744590759277
1680886060889448400,10.813448486328125,0.033461570739746094,0.0063262879848480225,0.0006929934024810791
1680886060899488300,10.82348828125,0.018799781799316406,-0.0058563947677612305,-0.008880138397216797
1680886060909528000,10.833528076171875,-0.012099266052246094,0.012771129608154297,-0.006466686725616455
1680886060919568000,10.84356787109375,-0.0071811676025390625,-0.0016910135746002197,-0.029933631420135498
1680886060929608000,10.85360791015625,-0.03060150146484375,0.0076888203620910645,0.012967079877853394
1680886060939647700,10.863647705078124,-0.020676612854003906,0.007495522499084473,0.0034193694591522217
1680886060949687600,10.8736875,0.014986991882324219,-0.01153072714805603,0.02216625213623047
1680886060959727400,10.883727294921876,0.014749526977539062,0.005078315734863281,-0.004311919212341309
1680886060969767200,10.89376708984375,0.016872406005859375,0.005051702260971069,0.018909543752670288
1680886060979807000,10.903806884765626,0.01895904541015625,0.026274889707565308,0.02520272135734558
1680886060989846800,10.9138466796875,0.018663406372070312,0.009353995323181152,0.017271608114242554
1680886060999886800,10.923886962890625,-0.0028085708618164062,0.0255507230758667,0.0024160146713256836
1680886061009926400,10.933926513671874,-0.00038909912109375,0.006105571985244751,-0.002539306879043579
1680886061019966500,10.943966552734375,-0.02156543731689453,-0.005955547094345093,0.004656791687011719
1680886061030006300,10.95400634765625,-0.009436607360839844,-0.013045668601989746,-0.014048278331756592
1680886061040046000,10.964046142578125,-0.0022144317626953125,-0.005889773368835449,-0.016083061695098877
1680886061050086000,10.9740859375,0.0025320053100585938,-0.008093059062957764,-0.00648990273475647
1680886061060125700,10.984125732421875,0.0072002410888671875,0.00863027572631836,0.007595747709274292
1680886061070165500,10.99416552734375,0.016500473022460938,0.0015329420566558838,0.02845025062561035
1680886061080205300,11.004205322265625,0.037418365478515625,-0.01032876968383789,0.03971439599990845
1680886061090245000,11.0142451171875,0.020318984985351562,-0.010278135538101196,0.003762871026992798
1680886061100285200,11.02428515625,0.0058612823486328125,-0.014936745166778564,0.015494436025619507
1680886061110325000,11.034324951171875,-0.0036487579345703125,-0.0053952038288116455,-0.024758845567703247
1680886061120364800,11.04436474609375,-0.008292198181152344,-0.02426302433013916,-0.01961153745651245
1680886061130404600,11.054404541015625,-0.012844085693359375,0.008919596672058105,-0.0006636977195739746
1680886061140444400,11.0644443359375,0.003875732421875,-0.0032395124435424805,0.0013710260391235352
1680886061150484200,11.074484130859375,-0.0008697509765625,-0.005781799554824829,-0.0036877691745758057
1680886061160524000,11.08452392578125,-0.010250091552734375,0.0011350512504577637,-0.010898470878601074
1680886061170564000,11.094564208984375,-0.0029897689819335938,-0.006250172853469849,0.010205298662185669
1680886061180603600,11.104603759765626,-0.005278587341308594,0.01714855432510376,-0.013592511415481567
1680886061190643700,11.114643798828125,-0.0028219223022460938,-0.0022718608379364014,0.014910668134689331
1680886061200683500,11.12468359375,-0.0074748992919921875,0.0045864880084991455,-0.006440341472625732
1680886061210723300,11.134723388671874,-0.014402389526367188,0.001975417137145996,-0.008722871541976929
1680886061220763100,11.14476318359375,-0.0047359466552734375,0.0018183588981628418,-0.003960758447647095
1680886061230803000,11.154802978515624,0.004772186279296875,-0.0053987205028533936,0.010079801082611084
1680886061240842800,11.1648427734375,0.009421348571777344,0.0015118122100830078,0.00034436583518981934
1680886061250882600,11.174882568359376,-0.0024881362915039062,0.01065334677696228,0.01196792721748352
1680886061260922400,11.18492236328125,-0.009490013122558594,0.007868856191635132,0.028109103441238403
1680886061270962400,11.19496240234375,-0.006966590881347656,-0.006637543439865112,0.00648808479309082
1680886061281002200,11.205002197265625,-0.0021333694458007812,-0.009128481149673462,0.0017627477645874023
1680886061291042000,11.2150419921875,-0.002086639404296875,-0.016286343336105347,-0.012359559535980225
1680886061301081900,11.225081787109374,-0.006754875183105469,-0.0091380774974823,-0.0002943873405456543
1680886061311121700,11.23512158203125,-0.008993148803710938,-0.0044657886028289795,0.0022149384021759033
1680886061321161500,11.245161376953124,0.0029296875,0.002485424280166626,0.007033586502075195
1680886061331201300,11.255201171875,0.0028839111328125,-0.009456455707550049,0.007007598876953125
1680886061341241000,11.265240966796876,0.019318580627441406,-0.0023683905601501465,-0.0071401894092559814
1680886061351281000,11.275281005859375,0.000171661376953125,0.006896764039993286,-0.004631787538528442
1680886061361321000,11.285321044921876,0.019010543823242188,0.00647282600402832,-0.0067555904388427734
1680886061371360800,11.29536083984375,-0.0048370361328125,-0.0034224987030029297,-0.004132658243179321
1680886061381400600,11.305400634765626,-0.01887798309326172,0.0010312795639038086,-0.013206452131271362
1680886061391440400,11.3154404296875,-0.004443168640136719,-0.010947972536087036,-0.015010446310043335
1680886061401480200,11.325480224609375,0.0026845932006835938,-0.0037117600440979004,-0.016908258199691772
1680886061411520000,11.33552001953125,-0.002071380615234375,-0.006010293960571289,-0.0024160146713256836
1680886061421559800,11.345559814453125,0.0026674270629882812,0.01291722059249878,0.011834710836410522
1680886061431599600,11.355599609375,0.004973411560058594,0.0009194612503051758,0.023499727249145508
1680886061441639400,11.365639404296875,0.0025339126586914062,0.007893651723861694,0.0020734667778015137
1680886061451679500,11.375679443359376,0.009546279907226562,-0.0063825249671936035,-0.0024513304233551025
1680886061461719300,11.38571923828125,0.02350616455078125,-0.029958128929138184,-0.0021303892135620117
1680886061471759000,11.395759033203126,-0.00043010711669921875,-0.010759949684143066,-0.0065881311893463135
1680886061481799000,11.405798828125,0.004284858703613281,-0.003652721643447876,-0.0016137659549713135
1680886061491838700,11.415838623046875,-0.012270927429199219,0.003389716148376465,-0.031970322132110596
1680886061501878500,11.42587841796875,-0.002655029296875,-0.00386926531791687,0.0018013715744018555
1680886061511918300,11.43591845703125,-0.004965782165527344,0.005474716424942017,-0.016903072595596313
1680886061521958100,11.445958251953124,-0.011945724487304688,0.031145036220550537,0.014139413833618164
1680886061531998200,11.455998291015625,0.0023717880249023438,-0.002287924289703369,0.0375400185585022
1680886061542038000,11.4660380859375,-0.025943756103515625,0.0027982890605926514,0.025355547666549683
1680886061552077800,11.476077880859375,0.02623462677001953,0.01033085584640503,0.011255770921707153
1680886061562117600,11.48611767578125,0.046932220458984375,0.0011968612670898438,0.0070466697216033936
1680886061572157400,11.496157470703125,0.06963729858398438,-0.01237526535987854,-0.006626993417739868
1680886061582197200,11.506197265625,0.04490470886230469,-0.03519681096076965,-0.029961347579956055
1680886061592237000,11.516237060546874,0.027686119079589844,-0.0179063081741333,-0.03931844234466553
1680886061602276900,11.52627685546875,-0.026895523071289062,-0.0269128680229187,-0.013507455587387085
1680886061612316700,11.536316650390624,-0.052337646484375,-0.004985213279724121,-0.013730883598327637
1680886061622356700,11.546356689453125,-0.0514984130859375,-0.006734311580657959,0.03843751549720764
1680886061632396500,11.556396484375,-0.027146339416503906,0.01502344012260437,0.005404025316238403
1680886061642436400,11.566436279296875,0.02506732940673828,0.00798863172531128,-0.003710925579071045
1680886061652476200,11.57647607421875,0.02464008331298828,-0.01564672589302063,-0.012906879186630249
1680886061662516000,11.586515869140625,0.01953887939453125,0.003374636173248291,-0.02007308602333069
1680886061672555800,11.5965556640625,-0.011372566223144531,0.008017957210540771,-0.013059556484222412
1680886061682595600,11.606595703125,-0.03941535949707031,0.03836742043495178,0.019845277070999146
1680886061692635400,11.616635498046875,-0.04347705841064453,0.02353498339653015,0.019838601350784302
1680886061702675500,11.626675537109374,-0.04279041290283203,0.018420249223709106,0.029785484075546265
1680886061712715300,11.63671533203125,-0.016226768493652344,-0.0030911266803741455,-0.009691774845123291
1680886061722755000,11.646755126953124,0.005192756652832031,0.004008978605270386,-0.006315380334854126
1680886061732795000,11.656794921875,0.019202232360839844,0.003925591707229614,-0.007877588272094727
1680886061742834700,11.666834716796876,0.037697792053222656,-0.0009211599826812744,-0.021364599466323853
1680886061752874500,11.67687451171875,0.013522148132324219,-0.01045188307762146,-0.0019068121910095215
1680886061762914300,11.686914306640626,0.018007278442382812,-0.029299497604370117,-0.0017248690128326416
1680886061772954000,11.6969541015625,0.0035867691040039062,-0.010165870189666748,0.007811844348907471
1680886061782994000,11.706993896484375,-0.010591506958007812,-0.014954626560211182,0.014897376298904419
1680886061793034000,11.717033935546874,-0.02689361572265625,-0.017370939254760742,0.005565285682678223
1680886061803073800,11.72707373046875,-0.012315750122070312,-0.015156537294387817,-0.024740070104599
1680886061813113600,11.737113525390624,-0.012103080749511719,-0.02245214581489563,-0.01216772198677063
1680886061823153400,11.7471533203125,-0.018952369689941406,-0.013149350881576538,-0.009336739778518677
1680886061833193200,11.757193115234376,0.004912376403808594,-0.01094883680343628,0.0005126595497131348
1680886061843233000,11.76723291015625,0.00012302398681640625,-0.018027424812316895,0.0007251203060150146
1680886061853272800,11.77727294921875,0.023662567138671875,-0.003797680139541626,0.005639463663101196
1680886061863312600,11.787312744140625,0.023286819458007812,-0.018170863389968872,0.01959088444709778
1680886061873352400,11.7973525390625,-0.010041236877441406,0.007716834545135498,-0.01377415657043457
1680886061883392500,11.807392578125,-0.019277572631835938,-0.004432469606399536,-0.01592254638671875
1680886061893432300,11.817432373046875,-0.035437583923339844,0.011986404657363892,-0.0036711394786834717
1680886061903472000,11.82747216796875,-0.02545166015625,0.011770188808441162,0.029858767986297607
1680886061913512000,11.837511962890625,-0.015653610229492188,0.030501335859298706,0.004337489604949951
1680886061923551700,11.8475517578125,0.008104324340820312,0.013604879379272461,0.016970694065093994
1680886061933591600,11.857591552734375,0.02676105499267578,0.025240421295166016,0.022212833166122437
1680886061943631400,11.86763134765625,0.056893348693847656,0.017851054668426514,0.031778305768966675
1680886061953671200,11.877671142578125,0.037105560302734375,-0.0011810064315795898,-0.008731454610824585
1680886061963711200,11.887711181640626,0.012950897216796875,0.015419632196426392,0.014699369668960571
1680886061973751000,11.8977509765625,-0.0037384033203125,0.012853622436523438,0.004836976528167725
1680886061983790800,11.907790771484375,-0.015453338623046875,-0.003735840320587158,0.028333604335784912
1680886061993830700,11.91783056640625,-0.03405189514160156,-0.0035694539546966553,1.4901161193847656e-7
1680886062003870500,11.927870361328125,-0.012332916259765625,-0.005639523267745972,0.0076257288455963135
1680886062013910300,11.93791015625,-0.009808540344238281,-0.028868019580841064,-0.013120174407958984
1680886062023950000,11.9479501953125,-0.0049686431884765625,0.007145583629608154,0.022862404584884644
1680886062033990000,11.957989990234376,0.016274452209472656,-0.009233355522155762,-0.005377024412155151
1680886062044029700,11.96802978515625,0.015972137451171875,-0.022926121950149536,-0.004895418882369995
1680886062054069800,11.97806982421875,0.006264686584472656,-0.010614991188049316,-0.011481434106826782
1680886062064109600,11.988109619140625,0.0014286041259765625,-0.010333865880966187,-0.025026261806488037
