time,seconds_elapsed,z,y,x
1680886657462883300,0.03288330078125,0,0,0
1680886657472923100,0.042923095703125,-0.09529972076416016,-0.21702846884727478,0.4317812919616699
1680886657482963200,0.052963134765625,-0.3243398666381836,-0.48449957370758057,0.4715123176574707
1680886657493003000,0.0630029296875,-0.5088796615600586,-0.05713456869125366,0.2551722526550293
1680886657503042800,0.073042724609375,-0.7542705535888672,0.7040214538574219,-0.17211341857910156
1680886657513083000,0.083082763671875,-0.7778205871582031,0.8825910091400146,-0.37958526611328125
1680886657523122700,0.093122802734375,-0.6360845565795898,0.2322033941745758,-0.26062583923339844
1680886657533162800,0.103162841796875,1.1489362716674805,-0.6922653317451477,0.862917423248291
1680886657543202600,0.11320263671875,0.28144073486328125,-1.258577585220337,0.32592248916625977
1680886657553242400,0.123242431640625,-0.0001506805419921875,-0.9116718173027039,-0.6183075904846191
1680886657563282400,0.133282470703125,-1.0199317932128906,-0.6089125871658325,-1.4914734363555908
1680886657573322200,0.143322265625,-2.184939384460449,-0.14883765578269958,-1.9442188739776611
1680886657583362000,0.153362060546875,-2.7481231689453125,-0.43111860752105713,-1.7701807022094727
1680886657593402000,0.163402099609375,-2.705122470855713,-0.21474438905715942,-1.2000832557678223
1680886657603442000,0.17344189453125,-2.6128273010253906,0.04029809683561325,-0.730219841003418
1680886657613481700,0.183481689453125,-2.3170857429504395,0.18688654899597168,-0.11453533172607422
1680886657623521800,0.193521728515625,-1.751051902770996,0.1341993510723114,0.3868751525878906
1680886657633561600,0.2035615234375,-1.339704990386963,0.08269846439361572,-0.09611177444458008
1680886657643601400,0.213601318359375,-0.9057788848876953,0.2556982636451721,-0.8669478893280029
1680886657653641500,0.223641357421875,-0.31921911239624023,0.4924393594264984,-1.3202097415924072
1680886657663681300,0.233681396484375,-0.11672306060791016,0.4642852544784546,-0.950294017791748
1680886657673721000,0.24372119140625,-0.3902711868286133,0.06149202585220337,-0.3617541790008545
1680886657683761200,0.25376123046875,-0.8673295974731445,-0.23869353532791138,-0.4494619369506836
1680886657693801000,0.263801025390625,-1.174809455871582,-0.1766313910484314,-0.6146116256713867
1680886657703840800,0.2738408203125,-1.4044275283813477,-0.10706061124801636,-0.6053318977355957
1680886657713880800,0.283880859375,-1.4432010650634766,-0.28675562143325806,-0.20933985710144043
1680886657723920600,0.293920654296875,-1.0267910957336426,-0.24757283926010132,0.2297372817993164
1680886657733960400,0.30396044921875,-0.4300704002380371,-0.31086695194244385,0.12761735916137695
1680886657744000500,0.31400048828125,0.003746509552001953,-0.5615729093551636,0.03064584732055664
1680886657754040300,0.324040283203125,0.19923114776611328,-1.2542645931243896,0.658475399017334
1680886657764080000,0.334080078125,0.897209644317627,-1.0026546716690063,-0.2108325958251953
1680886657774120200,0.3441201171875,1.5463018417358398,-0.7431347370147705,-0.23691987991333008
1680886657784160000,0.354159912109375,2.4071316719055176,-0.6859303712844849,-0.1958599090576172
1680886657794199800,0.36419970703125,2.8966798782348633,-0.775776743888855,0.020226478576660156
1680886657804240000,0.374239990234375,3.0987181663513184,-1.0015144348144531,0.14695358276367188
1680886657814279700,0.38427978515625,2.127007484436035,-1.3369135856628418,0.5299649238586426
1680886657824319500,0.394319580078125,3.1771554946899414,-1.1515851020812988,-0.43857860565185547
1680886657834359600,0.404359619140625,2.80094575881958,-0.7299022674560547,-0.5784568786621094
1680886657844399400,0.4143994140625,1.242635726928711,-0.7257494926452637,-0.1970348358154297
1680886657854439200,0.424439208984375,1.172823429107666,-0.3325662612915039,0.10967206954956055
1680886657864479200,0.434479248046875,1.334230899810791,0.42829084396362305,0.5789656639099121
1680886657874519000,0.44451904296875,0.8212490081787109,0.36537301540374756,1.2430353164672852
1680886657884559000,0.45455908203125,1.1084718704223633,0.5473750829696655,1.3304176330566406
1680886657894599000,0.464598876953125,1.2451472282409668,0.4426569938659668,1.4358830451965332
1680886657904638700,0.474638671875,1.6339631080627441,0.4065666198730469,1.2564740180969238
1680886657914678800,0.4846787109375,2.2299256324768066,0.4904494285583496,1.0421857833862305
1680886657924718600,0.494718505859375,2.636740207672119,0.47186779975891113,0.7397089004516602
1680886657934758400,0.50475830078125,2.7383103370666504,0.43956804275512695,0.5784749984741211
1680886657944798500,0.514798583984375,2.615830898284912,0.5885975360870361,0.6233606338500977
1680886657954838300,0.52483837890625,2.365520477294922,0.7066793441772461,0.827667236328125
1680886657964878000,0.534878173828125,1.9857702255249023,0.8310221433639526,0.9159579277038574
1680886657974918100,0.544918212890625,1.6684093475341797,0.882401704788208,0.8508152961730957
1680886657984958000,0.5549580078125,1.4588384628295898,0.8970034122467041,0.8031530380249023
1680886657994997800,0.564997802734375,1.3974485397338867,0.8583734035491943,0.8259110450744629
1680886658005037800,0.575037841796875,1.3544893264770508,0.741862416267395,0.7641191482543945
1680886658015077600,0.58507763671875,1.2080650329589844,0.4911956787109375,0.5893163681030273
1680886658025117400,0.595117431640625,0.9217033386230469,0.3085823059082031,0.4440288543701172
1680886658035157500,0.605157470703125,0.5811023712158203,0.1801128387451172,0.18077898025512695
1680886658045197300,0.615197265625,0.08559608459472656,0.1903698444366455,-0.05462026596069336
1680886658055237000,0.625237060546875,-0.417086124420166,0.20905232429504395,-0.24034786224365234
1680886658065277200,0.635277099609375,-0.8828449249267578,0.21604537963867188,-0.44694995880126953
1680886658075317000,0.64531689453125,-1.3288860321044922,0.18571972846984863,-0.6086568832397461
1680886658085356800,0.655356689453125,-1.641139030456543,0.21694517135620117,-0.9038310050964355
1680886658095396900,0.66539697265625,-1.825758934020996,0.13664507865905762,-1.094266414642334
1680886658105436700,0.675436767578125,-1.9220929145812988,-0.04642486572265625,-0.9511051177978516
1680886658115476500,0.6854765625,-2.0547590255737305,-0.30555057525634766,-0.8509860038757324
1680886658125516500,0.6955166015625,-2.3607401847839355,-0.589141845703125,-1.1932697296142578
1680886658135556400,0.705556396484375,-2.775369167327881,-0.8488335609436035,-1.7910246849060059
1680886658145596200,0.71559619140625,-3.1642069816589355,-1.1060354709625244,-2.5331406593322754
1680886658155636200,0.72563623046875,-3.5360913276672363,-1.458103895187378,-3.4298532009124756
1680886658165676000,0.735676025390625,-3.8791513442993164,-1.87514066696167,-4.369343280792236
1680886658175715800,0.7457158203125,-4.113999366760254,-2.089914560317993,-5.077236175537109
1680886658185756000,0.755755859375,-3.726677417755127,-1.8838660717010498,-6.083939075469971
1680886658195795700,0.765795654296875,-3.6176674365997314,-1.45902419090271,-5.434910297393799
1680886658205835800,0.775835693359375,-4.021534442901611,-1.7819206714630127,-3.87882924079895
1680886658215875600,0.78587548828125,-4.577641487121582,-2.404737949371338,-2.6856045722961426
1680886658225915400,0.795915283203125,-4.573507308959961,-2.706268310546875,-1.2750115394592285
1680886658235955500,0.80595556640625,-3.7995293140411377,-2.718022584915161,0.10103034973144531
1680886658245995300,0.815995361328125,-1.8022472858428955,-2.491650104522705,1.695481777191162
1680886658256035000,0.82603515625,1.8415474891662598,-2.0450823307037354,3.711318016052246
1680886658266075100,0.8360751953125,5.4154953956604,-2.0290493965148926,5.118175983428955
1680886658276115000,0.846114990234375,7.933027744293213,-2.18552827835083,5.910464763641357
1680886658286154800,0.85615478515625,8.898388862609863,-1.945948600769043,5.960062503814697
1680886658296194800,0.86619482421875,8.421037673950195,-1.4121618270874023,5.312812805175781
1680886658306234600,0.876234619140625,7.4985270500183105,-0.8158359527587891,4.714367389678955
1680886658316274400,0.8862744140625,6.654576301574707,-0.2157588005065918,4.464310646057129
1680886658326314200,0.896314208984375,6.2040815353393555,0.5917782783508301,4.512095928192139
1680886658336354300,0.906354248046875,6.03672981262207,1.364004135131836,4.913674354553223
1680886658346394000,0.91639404296875,5.303727626800537,1.5591251850128174,4.686463356018066
1680886658356434000,0.926433837890625,3.925841808319092,1.6505868434906006,4.147837162017822
1680886658366474000,0.936473876953125,2.333547592163086,1.8091161251068115,3.353994846343994
1680886658376513800,0.946513671875,0.9102659225463867,2.0516936779022217,2.717404365539551
1680886658386553600,0.9565537109375,-0.2051677703857422,2.2380597591400146,2.2588143348693848
1680886658396593700,0.96659375,-1.0232596397399902,2.2365341186523438,1.9079046249389648
1680886658406633500,0.976633544921875,-1.4570317268371582,2.096705198287964,1.4843940734863281
1680886658416673500,0.986673583984375,-1.6705422401428223,1.8931794166564941,1.050307273864746
1680886658426713300,0.99671337890625,-1.8225884437561035,1.563565731048584,0.48462724685668945
1680886658436753200,1.006753173828125,-1.8384404182434082,1.1067607402801514,-0.015223503112792969
1680886658446793200,1.016793212890625,-1.6005191802978516,0.6294293403625488,-0.4445171356201172
1680886658456833000,1.0268330078125,-1.1901588439941406,0.22554278373718262,-0.6821660995483398
1680886658466872800,1.036872802734375,-0.6925649642944336,-0.045327186584472656,-0.8514728546142578
1680886658476913000,1.046912841796875,-0.2896122932434082,-0.19097328186035156,-0.6953301429748535
1680886658486952700,1.05695263671875,-0.3245987892150879,-0.19729852676391602,-0.6632847785949707
1680886658496992500,1.066992431640625,-0.5502052307128906,-0.16914939880371094,-0.6991710662841797
1680886658507032600,1.077032470703125,-0.7194986343383789,-0.05193471908569336,-0.6841530799865723
1680886658517072400,1.087072265625,-0.9484562873840332,-0.04537200927734375,-0.8891901969909668
1680886658527112200,1.0971123046875,-0.9501891136169434,-0.05990266799926758,-0.9322915077209473
1680886658537152300,1.10715234375,-0.8071498870849609,-0.0058746337890625,-0.861152172088623
1680886658547192000,1.117192138671875,-0.5546503067016602,0.08532905578613281,-0.7226557731628418
1680886658557231900,1.12723193359375,-0.3797421455383301,0.11790752410888672,-0.4186429977416992
1680886658567272000,1.13727197265625,-0.38756656646728516,0.09398603439331055,-0.3833303451538086
1680886658577311700,1.147311767578125,-0.3347015380859375,0.08320379257202148,-0.38600969314575195
1680886658587351600,1.1573515625,-0.10982799530029297,0.028998136520385742,-0.3950843811035156
1680886658597391600,1.1673916015625,0.19216585159301758,-0.07088851928710938,-0.44219160079956055
1680886658607431400,1.177431396484375,0.339261531829834,-0.11676883697509766,-0.6822433471679688
1680886658617471200,1.18747119140625,0.28920888900756836,-0.22588539123535156,-0.9328327178955078
1680886658627511300,1.19751123046875,0.1247248649597168,-0.3197059631347656,-1.1453046798706055
1680886658637551000,1.207551025390625,-0.04542875289916992,-0.30476903915405273,-1.2399110794067383
1680886658647591000,1.2175908203125,-0.24221420288085938,-0.25750255584716797,-1.37687087059021
1680886658657631000,1.227630859375,-0.49068546295166016,-0.26499176025390625,-1.5040042400360107
1680886658667670800,1.2376708984375,-0.741147518157959,-0.20005178451538086,-1.6493122577667236
1680886658677710600,1.247710693359375,-0.9222865104675293,-0.19372844696044922,-1.789743185043335
1680886658687750700,1.257750732421875,-1.111525058746338,-0.27857398986816406,-1.9777734279632568
1680886658697790500,1.26779052734375,-1.285201072692871,-0.412750244140625,-2.296464681625366
1680886658707830300,1.277830322265625,-1.4622163772583008,-0.6114897727966309,-2.633052349090576
1680886658717870300,1.287870361328125,-1.5528883934020996,-0.7833662033081055,-3.1493072509765625
1680886658727910100,1.29791015625,-1.6252107620239258,-0.9883561134338379,-3.6161410808563232
1680886658737950000,1.307949951171875,-1.7091889381408691,-1.2631134986877441,-4.038357734680176
1680886658747990000,1.317989990234375,-1.7492823600769043,-1.4502224922180176,-4.122885704040527
1680886658758029800,1.32802978515625,-1.6157827377319336,-1.7110958099365234,-3.9510772228240967
1680886658768070000,1.33806982421875,-1.419776439666748,-2.0318760871887207,-3.657334804534912
1680886658778109700,1.348109619140625,-1.1983017921447754,-2.166792392730713,-3.2921457290649414
1680886658788149500,1.3581494140625,-0.8872489929199219,-2.00492525100708,-2.6981372833251953
1680886658798189600,1.368189453125,-0.4005279541015625,-2.0679879188537598,-2.1061620712280273
1680886658808229400,1.3782294921875,-0.41306447982788086,-2.1287660598754883,-1.4495253562927246
1680886658818269200,1.388269287109375,-0.6672534942626953,-2.10113525390625,-0.756411075592041
1680886658828309200,1.398309326171875,-0.7548825740814209,-2.134688377380371,-0.21936511993408203
1680886658838349000,1.40834912109375,-0.35885047912597656,-2.058424472808838,-0.13558673858642578
1680886658848388900,1.418388916015625,0.24599885940551758,-2.0306291580200195,0.19501256942749023
1680886658858429000,1.428428955078125,0.3804135322570801,-2.125710964202881,0.3646202087402344
1680886658868468700,1.43846875,0.2838320732116699,-1.987462043762207,0.6858959197998047
1680886658878508500,1.448508544921875,0.29991602897644043,-1.6823234558105469,1.5106511116027832
1680886658888548600,1.458548583984375,0.18647980690002441,-1.4892148971557617,2.639132499694824
1680886658898588400,1.46858837890625,0.3549158573150635,-1.357015609741211,3.866640567779541
1680886658908628500,1.47862841796875,1.2548028230667114,-1.2525553703308105,5.292090892791748
1680886658918668300,1.488668212890625,2.0663509368896484,-1.4034371376037598,5.911241054534912
1680886658928708000,1.4987080078125,2.4736151695251465,-1.4243502616882324,6.1610541343688965
1680886658938748000,1.508747802734375,2.5289955139160156,-1.3301916122436523,6.392158508300781
1680886658948788000,1.5187880859375,3.208700180053711,-1.7514853477478027,6.914827346801758
1680886658958827800,1.528827880859375,2.944171905517578,-1.9451708793640137,7.01686429977417
1680886658968867600,1.53886767578125,2.356874942779541,-2.1228299140930176,6.779308319091797
1680886658978907600,1.54890771484375,2.3904659748077393,-2.335956573486328,6.419641971588135
1680886658988947500,1.558947509765625,2.325822114944458,-2.1128435134887695,5.946091651916504
1680886658998987300,1.5689873046875,1.0296337604522705,-2.4483718872070312,5.03933048248291
1680886659009027300,1.57902734375,-0.4239771366119385,-2.3651657104492188,5.367332458496094
1680886659019067100,1.589067138671875,-0.37985992431640625,-1.9240140914916992,5.593087196350098
1680886659029107000,1.59910693359375,-0.9352869987487793,-1.7290325164794922,5.042569637298584
1680886659039147000,1.60914697265625,-2.0187206268310547,-2.297548294067383,3.7448925971984863
1680886659049186800,1.619186767578125,-2.7283716201782227,-2.1558732986450195,2.8246912956237793
1680886659059227000,1.629226806640625,-1.7572771310806274,-2.222811698913574,1.9521002769470215
1680886659069266700,1.6392666015625,-0.24609780311584473,-1.75274658203125,0.7899594306945801
1680886659079306500,1.649306396484375,0.7222189903259277,-1.0983476638793945,0.45963430404663086
1680886659089346600,1.6593466796875,-0.05974888801574707,-0.8621673583984375,1.0866122245788574
1680886659099386400,1.669386474609375,-0.8876569271087646,0.0733785629272461,2.192000150680542
1680886659109426200,1.67942626953125,-1.5974254608154297,1.252687931060791,2.764115333557129
1680886659119466200,1.68946630859375,0.09760618209838867,1.7080612182617188,3.8053057193756104
1680886659129506000,1.699506103515625,-1.6497576236724854,4.456453323364258,4.566244602203369
1680886659139545900,1.7095458984375,-1.0857312679290771,7.042210102081299,5.5507493019104
1680886659149586000,1.7195859375,-1.662024974822998,8.442235946655273,6.079794883728027
1680886659159625700,1.729625732421875,-3.3193562030792236,9.278533935546875,7.172340393066406
1680886659169665500,1.73966552734375,-5.904759407043457,9.601764678955078,6.645843982696533
1680886659179705600,1.74970556640625,-7.784145355224609,10.119319915771484,6.603402614593506
1680886659189745400,1.759745361328125,-7.318995475769043,10.131131172180176,7.6740498542785645
1680886659199785200,1.76978515625,-5.642633438110352,8.008872032165527,6.129203796386719
1680886659209825300,1.7798251953125,-4.98106050491333,4.692111015319824,2.9745073318481445
1680886659219865000,1.789864990234375,-4.04434871673584,1.9173994064331055,-0.2354445457458496
1680886659229905000,1.79990478515625,0.7845101356506348,-0.11239385604858398,-3.0487473011016846
1680886659239945000,1.809945068359375,-1.848535180091858,-6.4951653480529785,-14.428789138793945
1680886659249984800,1.81998486328125,-0.06080365180969238,-5.539356231689453,-14.446535110473633
1680886659260024800,1.83002490234375,1.500877857208252,-4.498841762542725,-11.720998764038086
1680886659270064600,1.840064697265625,0.9807286262512207,-3.8098840713500977,-8.778051376342773
1680886659280104400,1.8501044921875,-0.30012941360473633,-2.834338665008545,-4.923545837402344
1680886659290144500,1.86014453125,-1.515740990638733,-2.5315451622009277,-3.7260117530822754
1680886659300184300,1.870184326171875,-1.6136634349822998,-2.555266857147217,-3.0774192810058594
1680886659310224100,1.88022412109375,-0.44631433486938477,-1.7418770790100098,-0.49143314361572266
1680886659320264200,1.89026416015625,-0.6249275207519531,-1.3656039237976074,-1.1005563735961914
1680886659330304000,1.900303955078125,-0.28610360622406006,-2.0757393836975098,-1.0686941146850586
1680886659340343800,1.91034375,0.05656743049621582,-1.6495909690856934,0.14351558685302734
1680886659350383900,1.9203837890625,-0.7399858832359314,-1.3439393043518066,0.3753490447998047
1680886659360423700,1.930423583984375,-1.3818671703338623,-0.45200300216674805,0.7809820175170898
1680886659370463500,1.94046337890625,-1.145585298538208,0.17881512641906738,0.5964536666870117
1680886659380503600,1.950503662109375,-0.7979854345321655,0.41240406036376953,1.0476770401000977
1680886659390543400,1.96054345703125,-0.2618695795536041,-1.3248226642608643,1.9586153030395508
1680886659400583200,1.970583251953125,1.2606879472732544,-2.403905153274536,2.157290458679199
1680886659410623200,1.980623291015625,2.3258163928985596,-0.18295550346374512,-0.040230751037597656
1680886659420663000,1.9906630859375,1.3219114542007446,-1.0369997024536133,-0.33737945556640625
1680886659430702800,2.000702880859375,0.12180733680725098,-1.067955493927002,0.42530250549316406
1680886659440743000,2.010742919921875,0.27086329460144043,0.31395745277404785,-2.399962902069092
1680886659450782700,2.02078271484375,2.7875969409942627,3.8344991207122803,-1.2798633575439453
1680886659460822500,2.030822509765625,2.080120801925659,2.3812196254730225,-1.3321046829223633
1680886659470862600,2.040862548828125,1.3415343761444092,-2.000823974609375,0.4240989685058594
1680886659480902400,2.05090234375,0.7319033145904541,-2.357184886932373,-0.2225961685180664
1680886659490942200,2.060942138671875,0.7207968235015869,-2.3822293281555176,-0.882472038269043
1680886659500982300,2.070982177734375,0.6917722225189209,-2.804196357727051,-1.3191218376159668
1680886659511022000,2.08102197265625,0.04943037033081055,-2.8738245964050293,-1.7851648330688477
1680886659521062000,2.091061767578125,-0.3466060161590576,-2.533440113067627,-3.3249683380126953
1680886659531102000,2.10110205078125,-0.39690136909484863,-2.6481454372406006,-4.392538070678711
1680886659541141800,2.111141845703125,-0.23431777954101562,-2.1714282035827637,-4.992110252380371
1680886659551181600,2.121181640625,0.39362192153930664,-1.468696117401123,-4.356593132019043
1680886659561221600,2.1312216796875,1.317902684211731,-0.853184700012207,-2.545496940612793
1680886659571261400,2.141261474609375,1.5542985200881958,-0.35564160346984863,-0.370208740234375
1680886659581301500,2.151301513671875,1.4178332090377808,0.03320813179016113,1.3946943283081055
1680886659591341300,2.16134130859375,0.4699341058731079,1.7995171546936035,2.0768280029296875
1680886659601381000,2.171381103515625,-0.197465181350708,3.5685081481933594,1.3093395233154297
1680886659611421200,2.181421142578125,1.3537172079086304,1.9363757371902466,4.791181564331055
1680886659621461000,2.1914609375,3.0169529914855957,2.6755495071411133,7.121332168579102
1680886659631500800,2.201500732421875,3.535684823989868,2.0955677032470703,7.90725040435791
1680886659641540900,2.211540771484375,4.481100082397461,-0.31437039375305176,6.777703285217285
1680886659651580700,2.22158056640625,-0.5735316872596741,-1.9396350383758545,3.6871280670166016
1680886659661620500,2.231620361328125,-2.892514705657959,-2.0326766967773438,-0.20625782012939453
1680886659671660500,2.24166064453125,-3.256655693054199,-3.6797454357147217,0.11520767211914062
1680886659681700400,2.251700439453125,-2.51924991607666,-3.5172712802886963,0.1395740509033203
1680886659691740200,2.261740234375,-2.4452240467071533,-2.848078966140747,0.13728809356689453
1680886659701780200,2.2717802734375,-3.0594959259033203,-2.8302156925201416,-0.12744903564453125
1680886659711820000,2.281820068359375,-2.678466558456421,-2.277902603149414,-0.06857967376708984
1680886659721860000,2.291860107421875,-2.0647566318511963,-1.4152381420135498,0.3735923767089844
1680886659731900000,2.30189990234375,-1.08659827709198,-3.302455425262451,0.5428533554077148
1680886659741939700,2.311939697265625,-0.4679299592971802,-2.684998035430908,2.319300651550293
1680886659751979800,2.321979736328125,0.48927074670791626,-2.413710594177246,2.721806526184082
1680886659762019600,2.33201953125,0.3738914132118225,-2.486617088317871,2.758808135986328
1680886659772059400,2.342059326171875,-0.024724245071411133,-2.5047125816345215,2.313711166381836
1680886659782099500,2.352099365234375,-0.8241029977798462,-1.7186198234558105,2.443939208984375
1680886659792139300,2.36213916015625,-1.9525387287139893,-1.0957703590393066,3.298999786376953
1680886659802179000,2.372178955078125,-2.1038284301757812,0.4694995880126953,3.0744924545288086
1680886659812219100,2.38221923828125,-2.4040422439575195,1.5942883491516113,2.8680648803710938
1680886659822259000,2.392259033203125,-2.127074718475342,2.5748751163482666,3.8905153274536133
1680886659832298800,2.402298828125,0.10525215417146683,1.414344310760498,5.296712875366211
1680886659842338800,2.4123388671875,0.15115483105182648,-0.031206130981445312,4.443113327026367
1680886659852378600,2.422378662109375,0.26720529794692993,0.381223201751709,4.379711151123047
1680886659862418400,2.43241845703125,0.20584630966186523,0.9791154861450195,4.250542640686035
1680886659872458500,2.44245849609375,0.2639032006263733,1.2793669700622559,3.739230155944824
1680886659882498300,2.452498291015625,-0.11451810598373413,1.5633883476257324,2.5838394165039062
1680886659892538000,2.4625380859375,-0.5568175315856934,1.984910011291504,1.3057794570922852
1680886659902578200,2.472578125,-1.4947903156280518,1.977409839630127,0.14564990997314453
1680886659912618000,2.482617919921875,-1.3162732124328613,1.9942536354064941,-0.8695888519287109
1680886659922657800,2.49265771484375,-0.9355602264404297,2.094052314758301,-1.6613268852233887
1680886659932697900,2.50269775390625,-0.3167766332626343,2.088812828063965,-2.4073572158813477
1680886659942737700,2.512737548828125,0.253118097782135,1.9729044437408447,-2.96091890335083
1680886659952777500,2.522777587890625,0.7580102682113647,1.8084375858306885,-3.197464942932129
1680886659962817500,2.532817626953125,1.3428809642791748,1.6765544414520264,-3.28397274017334
1680886659972857300,2.542857421875,1.564824104309082,1.0343642234802246,-3.0748367309570312
1680886659982897400,2.5528974609375,1.7052810192108154,0.5932927131652832,-2.4391226768493652
1680886659992937200,2.562937255859375,1.613596796989441,0.013016700744628906,-2.1609482765197754
1680886660002977000,2.57297705078125,1.4318920373916626,-0.7821741104125977,-2.159173011779785
1680886660013017000,2.58301708984375,1.3693649768829346,-1.506542444229126,-2.35422420501709
1680886660023057000,2.593056884765625,1.6831337213516235,-2.1520702838897705,-2.7254018783569336
1680886660033096700,2.6030966796875,2.4232585430145264,-2.6556284427642822,-2.8668856620788574
1680886660043136800,2.61313671875,2.7043893337249756,-2.8812742233276367,-3.225215435028076
1680886660053176600,2.623176513671875,2.038205862045288,-3.035510540008545,-3.7526984214782715
1680886660063216400,2.63321630859375,1.55479896068573,-3.0033774375915527,-4.08076810836792
1680886660073256400,2.64325634765625,1.5755456686019897,-3.1318674087524414,-4.26567268371582
1680886660083296300,2.653296142578125,1.865911602973938,-2.95662784576416,-4.551541805267334
1680886660093336000,2.663336181640625,2.107083797454834,-2.434518814086914,-4.977430820465088
1680886660103376100,2.673376220703125,2.0724852085113525,-2.032083511352539,-5.1658830642700195
1680886660113416000,2.683416015625,1.8331135511398315,-1.995523452758789,-5.153665065765381
1680886660123455700,2.693455810546875,1.5691782236099243,-2.2062768936157227,-4.9092206954956055
1680886660133495800,2.703495849609375,1.5612502098083496,-2.4426746368408203,-4.801769256591797
1680886660143535600,2.71353564453125,1.8721444606781006,-2.803300380706787,-4.533119201660156
1680886660153575400,2.723575439453125,2.291130781173706,-3.2579445838928223,-3.8342604637145996
1680886660163615500,2.733615478515625,2.745908260345459,-3.719660758972168,-2.56990385055542
1680886660173655300,2.7436552734375,3.071349620819092,-4.155273914337158,-1.603196144104004
1680886660183695400,2.7536953125,3.2786779403686523,-4.402190208435059,-0.46698665618896484
1680886660193735200,2.763735107421875,3.458296775817871,-4.533684730529785,0.4976835250854492
1680886660203775000,2.77377490234375,3.3432183265686035,-4.5110859870910645,1.5851469039916992
1680886660213815000,2.78381494140625,3.3258838653564453,-4.481292247772217,2.225801944732666
1680886660223854800,2.793854736328125,3.6809940338134766,-4.258985996246338,2.7249550819396973
1680886660233894700,2.803894775390625,3.5200119018554688,-4.035212993621826,3.166266918182373
1680886660243934700,2.813934814453125,4.037402629852295,-3.800614356994629,3.528850555419922
1680886660253974500,2.823974609375,3.2057902812957764,-3.2342300415039062,3.9063329696655273
1680886660264014300,2.834014404296875,2.066643714904785,-2.684232711791992,4.238541126251221
1680886660274054400,2.844054443359375,1.9484362602233887,-2.2965173721313477,4.636817932128906
1680886660284094200,2.85409423828125,2.501742362976074,-2.0935654640197754,4.891016006469727
1680886660294134000,2.864134033203125,3.0761971473693848,-1.6544699668884277,5.041744232177734
1680886660304174000,2.874174072265625,2.094266891479492,-0.8241748809814453,4.855818271636963
1680886660314214000,2.8842138671875,0.05796098709106445,0.18843364715576172,4.78342342376709
1680886660324254000,2.89425390625,-1.1320381164550781,1.0395112037658691,5.079580783843994
1680886660334293800,2.904293701171875,-1.6805860996246338,1.7059264183044434,5.538976669311523
1680886660344333600,2.91433349609375,-2.036294460296631,2.1659011840820312,5.777819633483887
1680886660354373600,2.92437353515625,-2.3784971237182617,2.5237274169921875,5.660379886627197
1680886660364413400,2.934413330078125,-2.70231294631958,2.7694740295410156,5.381251335144043
1680886660374453200,2.944453369140625,-2.7485647201538086,3.2190208435058594,4.710918426513672
1680886660384493300,2.954493408203125,-2.6844840049743652,3.7825255393981934,3.316983222961426
1680886660394533000,2.964533203125,-2.335789203643799,4.058812618255615,2.0719552040100098
1680886660404573000,2.974572998046875,-1.3952163457870483,3.973825693130493,1.1185665130615234
1680886660414613000,2.984613037109375,-0.8198277354240417,3.6663613319396973,0.3375053405761719
1680886660424652800,2.99465283203125,-0.3074023425579071,3.396836280822754,0.058496952056884766
1680886660434692600,3.004692626953125,0.2905975878238678,3.368091344833374,-0.29423999786376953
1680886660444732700,3.014732666015625,-0.6504244208335876,2.645132064819336,-1.7355585098266602
1680886660454772500,3.0247724609375,-0.2869722545146942,2.329537868499756,-2.5033364295959473
1680886660464812500,3.0348125,0.35541054606437683,1.9534451961517334,-2.7026495933532715
1680886660474852400,3.044852294921875,1.0693260431289673,1.5447490215301514,-2.770395278930664
1680886660484892200,3.05489208984375,1.1440016031265259,0.9326238632202148,-3.199881076812744
1680886660494932200,3.06493212890625,1.1000330448150635,0.2686443328857422,-3.47774076461792
1680886660504972000,3.074971923828125,0.9991062879562378,-0.6923494338989258,-3.594182014465332
1680886660515011800,3.08501171875,0.9934005737304688,-1.6183958053588867,-3.5940728187561035
1680886660525052000,3.095052001953125,1.065266728401184,-2.2927799224853516,-3.5422863960266113
1680886660535091700,3.105091796875,1.2027828693389893,-2.7348952293395996,-3.458676815032959
1680886660545131500,3.115131591796875,1.4242897033691406,-2.758596420288086,-3.2724409103393555
1680886660555171600,3.125171630859375,1.6029454469680786,-2.711838722229004,-2.84104061126709
1680886660565211400,3.13521142578125,1.6365628242492676,-2.8245134353637695,-2.082155227661133
1680886660575251200,3.145251220703125,1.5343708992004395,-2.818265914916992,-1.0655736923217773
1680886660585291300,3.155291259765625,1.4517285823822021,-2.2445669174194336,0.14084625244140625
1680886660595331000,3.1653310546875,1.1706982851028442,-1.618283748626709,1.2522716522216797
1680886660605371000,3.175370849609375,0.7517006397247314,-0.9158296585083008,2.027912139892578
1680886660615411000,3.185410888671875,0.24952471256256104,-0.09493064880371094,2.645115852355957
1680886660625450800,3.19545068359375,-0.36850422620773315,0.736213207244873,3.238628387451172
1680886660635490800,3.20549072265625,-0.969948947429657,1.5320777893066406,3.8068695068359375
1680886660645530600,3.215530517578125,-1.5796672105789185,2.1020641326904297,4.941554069519043
1680886660655570400,3.2255703125,-2.026564598083496,2.5379486083984375,5.873126983642578
1680886660665610500,3.235610595703125,-2.463735818862915,2.9900295734405518,6.754356384277344
1680886660675650300,3.245650390625,-2.74836802482605,3.5894994735717773,7.630290985107422
1680886660685690000,3.255690185546875,-2.9584460258483887,4.474823474884033,8.079923629760742
1680886660695730200,3.265730224609375,-2.8429946899414062,4.814942359924316,7.335156440734863
1680886660705770000,3.27577001953125,-2.4401228427886963,4.470636367797852,5.431510925292969
1680886660715809800,3.285809814453125,-1.8939731121063232,3.5700767040252686,3.023810386657715
1680886660725849900,3.295849853515625,-0.4203118681907654,1.6802244186401367,1.6172065734863281
1680886660735889700,3.3058896484375,1.709252119064331,-0.5314505100250244,1.6288623809814453
1680886660745929500,3.315929443359375,3.652048110961914,-2.346632719039917,1.9828109741210938
1680886660755969500,3.325969482421875,5.244019508361816,-3.282374382019043,0.9752283096313477
1680886660766009300,3.33600927734375,6.004249572753906,-3.729820728302002,-0.8368358612060547
1680886660776049400,3.34604931640625,6.116787433624268,-3.987041711807251,-2.5262436866760254
1680886660786089200,3.356089111328125,5.814904689788818,-4.077742576599121,-3.6609835624694824
1680886660796129000,3.36612890625,5.086243152618408,-3.93465256690979,-4.5066118240356445
1680886660806169000,3.376169189453125,3.940878391265869,-3.77244234085083,-5.265933513641357
1680886660816209000,3.386208984375,2.517787456512451,-3.6788218021392822,-5.736068248748779
1680886660826248700,3.396248779296875,1.2362141609191895,-3.461632251739502,-5.855307579040527
1680886660836288800,3.406288818359375,0.02591836452484131,-3.1649959087371826,-5.8247151374816895
1680886660846328600,3.41632861328125,-0.8751442432403564,-3.31227707862854,-4.889090538024902
1680886660856368400,3.426368408203125,-1.7381864786148071,-4.062112808227539,-3.7611308097839355
1680886660866408400,3.436408447265625,-2.5060768127441406,-4.521721363067627,-2.7440872192382812
1680886660876448300,3.4464482421875,-2.912111282348633,-4.946993350982666,-2.325136661529541
1680886660886488300,3.45648828125,-1.7541091442108154,-4.583266258239746,-2.3178982734680176
1680886660896528100,3.466528076171875,0.16145062446594238,-3.726515531539917,-2.1731462478637695
1680886660906568000,3.47656787109375,0.920905590057373,-3.3278677463531494,-1.4202947616577148
1680886660916608000,3.48660791015625,2.7445156574249268,-2.3637962341308594,-1.3558540344238281
1680886660926647800,3.496647705078125,3.107365608215332,-1.4193310737609863,-0.5600109100341797
1680886660936687600,3.5066875,2.1998250484466553,-1.212345838546753,0.4317340850830078
1680886660946727700,3.516727783203125,0.9771394729614258,-1.1109344959259033,1.372058391571045
1680886660956767500,3.526767578125,0.08241748809814453,-0.905663251876831,2.1115031242370605
1680886660966807300,3.536807373046875,-0.3229336738586426,-0.7262871265411377,2.4674220085144043
1680886660976847400,3.546847412109375,-0.5218124389648438,-0.7374989986419678,2.4470624923706055
1680886660986887200,3.55688720703125,-0.4146275520324707,-0.677839994430542,1.999483585357666
1680886660996927200,3.56692724609375,-0.11131143569946289,-0.7222833633422852,1.654191017150879
1680886661006967000,3.576967041015625,0.14655447006225586,-0.8429415225982666,1.2436952590942383
1680886661017006800,3.5870068359375,0.38153648376464844,-0.9244420528411865,0.8145089149475098
1680886661027047000,3.597046875,0.5832586288452148,-0.9364545345306396,0.47751474380493164
1680886661037086700,3.607086669921875,0.7542285919189453,-0.8730158805847168,0.20340442657470703
1680886661047126500,3.61712646484375,0.8699908256530762,-0.8065836429595947,-0.06021690368652344
1680886661057166600,3.62716650390625,0.9930925369262695,-0.8162920475006104,-0.33977270126342773
1680886661067206400,3.637206298828125,1.4222187995910645,-0.9262237548828125,-0.7870101928710938
1680886661077246200,3.64724609375,1.9350018501281738,-0.7550477981567383,-1.4221816062927246
1680886661087286300,3.657286376953125,2.242584705352783,-0.6524453163146973,-1.8688087463378906
1680886661097326000,3.667326171875,2.3760552406311035,-0.6091923713684082,-2.1036763191223145
1680886661107366000,3.677365966796875,2.2909607887268066,-0.5378479957580566,-2.1290712356567383
1680886661117406000,3.687406005859375,2.0840067863464355,-0.10076045989990234,-2.1323132514953613
1680886661127445800,3.69744580078125,1.8653664588928223,0.7086119651794434,-2.1629583835601807
1680886661137485800,3.70748583984375,1.2468481063842773,1.3264398574829102,-2.218046188354492
1680886661147525600,3.717525634765625,0.36039113998413086,1.7058963775634766,-1.9861364364624023
1680886661157565400,3.7275654296875,-0.49303340911865234,1.8007926940917969,-1.6424813270568848
1680886661167605500,3.73760546875,-0.8665509223937988,1.7475333213806152,-1.1247563362121582
1680886661177645300,3.747645263671875,-0.6237082481384277,1.7190237045288086,-0.44353151321411133
1680886661187685000,3.75768505859375,-0.40964746475219727,1.7890682220458984,0.14959335327148438
1680886661197725200,3.76772509765625,-0.5935373306274414,1.8435120582580566,0.6835160255432129
1680886661207765000,3.777764892578125,-1.1227507591247559,1.5954599380493164,1.8648533821105957
1680886661217804800,3.7878046875,-1.5946311950683594,0.9941167831420898,3.229489326477051
1680886661227844900,3.797844970703125,-1.7092156410217285,0.24284839630126953,3.830186605453491
1680886661237884700,3.807884765625,-1.6278200149536133,-0.5792465209960938,3.825814962387085
1680886661247924500,3.817924560546875,-1.3047947883605957,-1.3005023002624512,3.4328176975250244
1680886661257964500,3.827964599609375,-0.9102301597595215,-1.62152099609375,3.028808355331421
1680886661268004400,3.83800439453125,-0.5461845397949219,-1.4081711769104004,2.5719218254089355
1680886661278044400,3.84804443359375,-0.129180908203125,-0.8252439498901367,2.0307459831237793
1680886661288084200,3.858084228515625,0.17069339752197266,-0.31940412521362305,1.6684041023254395
1680886661298124000,3.8681240234375,0.18259620666503906,-0.031187057495117188,1.4643316268920898
1680886661308164000,3.8781640625,-0.02505779266357422,0.13010454177856445,1.299501657485962
1680886661318204000,3.888203857421875,-0.3298482894897461,-0.04746294021606445,0.8984317779541016
1680886661328243700,3.89824365234375,-0.5926761627197266,-0.30487585067749023,0.26960182189941406
1680886661338283800,3.90828369140625,-0.6681923866271973,-0.5427594184875488,-0.4127228260040283
1680886661348323600,3.918323486328125,-0.5409302711486816,-0.7509703636169434,-0.959036111831665
1680886661358363400,3.92836328125,-0.2475576400756836,-0.9464330673217773,-1.2845089435577393
1680886661368403500,3.938403564453125,0.1280078887939453,-1.099569320678711,-1.411647081375122
1680886661378443300,3.948443359375,0.4713916778564453,-1.0069189071655273,-1.4715261459350586
1680886661388483300,3.9584833984375,0.7205643653869629,-0.6799616813659668,-1.4435431957244873
1680886661398523100,3.968523193359375,0.8453245162963867,-0.34340429306030273,-1.2740254402160645
1680886661408563000,3.97856298828125,0.8364019393920898,0.04085969924926758,-1.091247320175171
1680886661418603000,3.98860302734375,0.7410240173339844,0.36076974868774414,-0.9450259208679199
1680886661428642800,3.998642822265625,0.6494936943054199,0.5867247581481934,-0.9046468734741211
1680886661438682600,4.0086826171875,0.6475067138671875,0.8641462326049805,-1.0662901401519775
1680886661448722700,4.01872265625,0.7290501594543457,1.0744543075561523,-1.2791848182678223
1680886661458762500,4.028762451171875,0.8633518218994141,1.3058600425720215,-1.4927737712860107
1680886661468802300,4.03880224609375,0.9800467491149902,1.5522022247314453,-1.6755975484848022
1680886661478842400,4.04884228515625,1.0433859825134277,1.7769842147827148,-1.8040508031845093
1680886661488882200,4.058882080078125,0.9971327781677246,2.008831024169922,-1.8814916610717773
1680886661498922000,4.068921875,0.8497390747070312,2.2885303497314453,-1.841653823852539
1680886661508962000,4.078962158203125,0.5564131736755371,2.5799031257629395,-1.5608621835708618
1680886661519001900,4.089001953125,0.1849970817565918,2.8819580078125,-1.1053966283798218
1680886661529042000,4.0990419921875,-0.21654272079467773,3.0900120735168457,-0.5504616498947144
1680886661539081700,4.109081787109375,-0.6433959007263184,3.148808002471924,-0.010922670364379883
1680886661549121500,4.11912158203125,-1.090561866760254,3.148505210876465,0.4263432025909424
1680886661559161600,4.12916162109375,-1.4961304664611816,3.143832206726074,0.8101754188537598
1680886661569201400,4.139201416015625,-1.7985420227050781,3.1556668281555176,1.0513654947280884
1680886661579241200,4.1492412109375,-1.9856204986572266,3.1497020721435547,1.149535059928894
1680886661589281300,4.15928125,-2.150622844696045,3.0380091667175293,1.1534017324447632
1680886661599321000,4.169321044921875,-2.2607827186584473,2.8292975425720215,1.0229257345199585
1680886661609361200,4.179361083984375,-2.361720085144043,2.4171972274780273,0.9140371084213257
1680886661619401000,4.18940087890625,-2.4455277919769287,1.9319648742675781,0.7153917551040649
1680886661629440800,4.199440673828125,-2.4370312690734863,1.4229564666748047,0.4973447322845459
1680886661639480800,4.209480712890625,-2.252368688583374,0.9662561416625977,0.31458139419555664
1680886661649520600,4.219520751953125,-1.8696463108062744,0.6912069320678711,0.1159200668334961
1680886661659560400,4.229560546875,-1.161531925201416,0.32345104217529297,-0.20551085472106934
1680886661669600500,4.2396005859375,-0.31371402740478516,0.12543201446533203,-0.3882526159286499
1680886661679640300,4.249640380859375,0.4841952323913574,0.6259574890136719,-0.495320200920105
1680886661689680400,4.259680419921875,1.0612971782684326,1.0111827850341797,-0.3474479913711548
1680886661699720200,4.26972021484375,1.4951059818267822,1.26483154296875,-0.17606043815612793
1680886661709760000,4.279760009765625,1.8069618940353394,1.4590015411376953,-0.15105092525482178
1680886661719800000,4.289800048828125,1.9958440065383911,1.668809413909912,-0.2667618989944458
1680886661729839900,4.29983984375,1.9813051223754883,1.8607048988342285,-0.4844202995300293
1680886661739879700,4.309879638671875,1.6792333126068115,2.1092209815979004,-0.7086964845657349
1680886661749919700,4.319919677734375,1.2014741897583008,2.1573314666748047,-0.5846018195152283
1680886661759959600,4.32995947265625,0.4261816740036011,1.6719770431518555,-0.1263987421989441
1680886661769999600,4.33999951171875,-0.0032862424850463867,0.18822765350341797,0.3419027328491211
1680886661780039400,4.350039306640625,-0.3243182897567749,-2.41439151763916,0.4341484308242798
1680886661790079200,4.360079345703125,-0.4643791913986206,-5.7110137939453125,0.5351216197013855
1680886661800119300,4.370119384765625,-0.17681896686553955,-8.447790145874023,0.69342041015625
1680886661810159000,4.3801591796875,-0.006913304328918457,-9.3636474609375,0.8392318487167358
1680886661820199000,4.390198974609375,-0.1373589038848877,-8.683478355407715,0.7425451278686523
1680886661830239000,4.400239013671875,-0.4760836362838745,-7.180350303649902,0.5155460238456726
1680886661840278800,4.41027880859375,-0.9309130907058716,-5.306674003601074,0.17121195793151855
1680886661850318800,4.42031884765625,-1.344010829925537,-3.442462921142578,-0.1927483081817627
1680886661860358700,4.430358642578125,-1.5747642517089844,-1.7897157669067383,-0.4573373794555664
1680886661870398500,4.4403984375,-1.605268955230713,-0.42697811126708984,-0.6229407787322998
1680886661880438500,4.4504384765625,-1.40935218334198,0.5831069946289062,-0.7690926790237427
1680886661890478300,4.460478271484375,-1.0028529167175293,1.1509552001953125,-0.9359102249145508
1680886661900518100,4.47051806640625,-0.4647675156593323,1.3064861297607422,-1.0971770286560059
1680886661910558200,4.48055810546875,0.050989508628845215,1.1170063018798828,-1.2091203927993774
1680886661920598000,4.490597900390625,0.5724672079086304,0.7478704452514648,-1.2066407203674316
1680886661930637800,4.500637939453125,1.0810564756393433,0.3904294967651367,-1.077975869178772
1680886661940678000,4.510677978515625,1.5153188705444336,0.17049026489257812,-0.8826099634170532
1680886661950717700,4.5207177734375,1.8677294254302979,0.07983875274658203,-0.6574897766113281
1680886661960757500,4.530757568359375,2.086043357849121,0.04858589172363281,-0.47484612464904785
1680886661970797600,4.540797607421875,2.2052829265594482,0.058577537536621094,-0.3385779857635498
1680886661980837400,4.55083740234375,2.2288408279418945,0.0991048812866211,-0.21760296821594238
1680886661990877400,4.56087744140625,2.1710093021392822,0.11416053771972656,-0.1394643783569336
1680886662000917200,4.570917236328125,2.0531814098358154,0.1005105972290039,-0.11735153198242188
1680886662010957000,4.58095703125,1.9034368991851807,0.09585762023925781,-0.10111689567565918
1680886662020997000,4.5909970703125,1.7364031076431274,0.08302783966064453,-0.13817250728607178
1680886662031037000,4.601036865234375,1.5692087411880493,0.1386127471923828,-0.1403980255126953
1680886662041076700,4.61107666015625,1.3758792877197266,0.2557859420776367,-0.07124161720275879
1680886662051116800,4.62111669921875,1.1294194459915161,0.3552999496459961,-0.031246662139892578
1680886662061156600,4.631156494140625,0.8552557826042175,0.39818859100341797,-0.06580257415771484
1680886662071196700,4.64119677734375,0.5609140396118164,0.3979463577270508,-0.20049571990966797
1680886662081236500,4.651236572265625,0.08596479892730713,0.3826026916503906,-0.4026026129722595
1680886662091276300,4.6612763671875,-0.467536598443985,0.32376670837402344,-0.4950495958328247
1680886662101316400,4.67131640625,-0.876494288444519,0.2564125061035156,-0.3733324408531189
1680886662111356200,4.681356201171875,-1.0852644443511963,0.225006103515625,-0.1306244134902954
1680886662121396000,4.69139599609375,-1.1244831085205078,0.2253131866455078,0.10833752155303955
1680886662131436000,4.70143603515625,-1.051952838897705,0.22611141204833984,0.29452550411224365
1680886662141475800,4.711475830078125,-0.9198985695838928,0.22696495056152344,0.42517292499542236
1680886662151516000,4.721515869140625,-0.7731832265853882,0.2203359603881836,0.5212352275848389
1680886662161555700,4.7315556640625,-0.6506720781326294,0.20372486114501953,0.5997976064682007
1680886662171595500,4.741595458984375,-0.5765326619148254,0.17720317840576172,0.6437091827392578
1680886662181635600,4.751635498046875,-0.5423970222473145,0.15273761749267578,0.6611039638519287
1680886662191675400,4.76167529296875,-0.526015043258667,0.13032245635986328,0.6604260206222534
1680886662201715500,4.771715576171875,-0.5155839920043945,0.10998058319091797,0.6402754187583923
1680886662211755300,4.78175537109375,-0.48114633560180664,0.09174251556396484,0.6133120656013489
1680886662221795000,4.791795166015625,-0.4348524510860443,0.0946798324584961,0.5895692706108093
1680886662231835100,4.801835205078125,-0.37971603870391846,0.1210775375366211,0.5740844011306763
1680886662241875000,4.811875,-0.3195067048072815,0.16841411590576172,0.5737115144729614
1680886662251914800,4.821914794921875,-0.2677333950996399,0.2126483917236328,0.5857260823249817
1680886662261954800,4.831954833984375,-0.23037338256835938,0.24889755249023438,0.6026754975318909
1680886662271994600,4.84199462890625,-0.21747440099716187,0.2746858596801758,0.6198503971099854
1680886662282034400,4.852034423828125,-0.2428235411643982,0.2757425308227539,0.6344639658927917
1680886662292074500,4.862074462890625,-0.30357640981674194,0.2521524429321289,0.6461840271949768
1680886662302114300,4.8721142578125,-0.4109882116317749,0.20641326904296875,0.6547817587852478
1680886662312154400,4.882154296875,-0.5540660619735718,0.15062332153320312,0.6627491116523743
1680886662322194200,4.892194091796875,-0.7118047475814819,0.09692192077636719,0.6703363060951233
1680886662332234000,4.90223388671875,-0.8604515194892883,0.038455963134765625,0.6964313983917236
1680886662342274000,4.912274169921875,-0.9794600605964661,-0.02682209014892578,0.7283098101615906
1680886662352313900,4.92231396484375,-1.0615534782409668,-0.08683490753173828,0.7848302721977234
1680886662362354000,4.93235400390625,-1.109762191772461,-0.15352249145507812,0.87283855676651
1680886662372393700,4.942393798828125,-1.1296155452728271,-0.23154735565185547,0.9912331104278564
1680886662382433500,4.95243359375,-1.1144208908081055,-0.34438133239746094,1.137303352355957
1680886662392473600,4.9624736328125,-1.0762441158294678,-0.49378395080566406,1.3006221055984497
1680886662402513400,4.972513427734375,-1.020153522491455,-0.6553592681884766,1.4667143821716309
1680886662412553200,4.98255322265625,-0.9590052366256714,-0.8027286529541016,1.6227298974990845
1680886662422593300,4.99259326171875,-0.9233426451683044,-0.9268503189086914,1.7630119323730469
1680886662432633000,5.002633056640625,-0.9471125602722168,-1.0237903594970703,1.8658602237701416
1680886662442673200,5.012673095703125,-1.0501903295516968,-1.108656883239746,1.9302845001220703
1680886662452713000,5.022712890625,-1.2148493528366089,-1.224517822265625,1.9646550416946411
1680886662462752800,5.032752685546875,-1.4020086526870728,-1.4016218185424805,1.9912923574447632
1680886662472792800,5.042792724609375,-1.6066943407058716,-1.6339244842529297,2.0148234367370605
1680886662482832600,5.05283251953125,-1.84059476852417,-1.8773632049560547,2.0240612030029297
1680886662492872700,5.062872802734375,-2.10054349899292,-2.097825050354004,2.0072202682495117
1680886662502912500,5.07291259765625,-2.382412910461426,-2.2279882431030273,1.96279776096344
1680886662512952300,5.082952392578125,-2.649831533432007,-2.2795028686523438,1.9027835130691528
1680886662522992400,5.092992431640625,-2.8175573348999023,-2.307429313659668,1.8764729499816895
1680886662533032200,5.1030322265625,-2.7903475761413574,-2.341599464416504,1.863058090209961
1680886662543072000,5.113072021484375,-2.6139252185821533,-2.3198375701904297,1.840903878211975
1680886662553112000,5.123112060546875,-2.3704347610473633,-2.1776609420776367,1.7935199737548828
1680886662563152000,5.13315185546875,-2.1862757205963135,-1.9050531387329102,1.6774678230285645
1680886662573191700,5.143191650390625,-2.0551507472991943,-1.5400333404541016,1.4295454025268555
1680886662583231700,5.153231689453125,-1.8036142587661743,-1.1706771850585938,1.093994140625
1680886662593271600,5.163271484375,-1.4055591821670532,-0.8556318283081055,0.7005404233932495
1680886662603311600,5.1733115234375,-0.8867001533508301,-0.6382303237915039,0.20391792058944702
1680886662613351400,5.183351318359375,-0.2264941930770874,-0.5290613174438477,-0.32012397050857544
1680886662623391200,5.19339111328125,0.5701738595962524,-0.4369487762451172,-0.7864857316017151
1680886662633431300,5.203431396484375,1.4291836023330688,-0.373291015625,-1.1849559545516968
1680886662643471000,5.21347119140625,2.248887062072754,-0.3858823776245117,-1.5343575477600098
1680886662653511200,5.22351123046875,2.9651122093200684,-0.46121788024902344,-1.8797900676727295
1680886662663551000,5.233551025390625,3.537482261657715,-0.5651330947875977,-2.2037315368652344
1680886662673590800,5.2435908203125,3.9568538665771484,-0.6567926406860352,-2.479348659515381
1680886662683630800,5.253630859375,4.190867900848389,-0.6936302185058594,-2.6216139793395996
1680886662693670700,5.263670654296875,4.157318115234375,-0.6391019821166992,-2.6183676719665527
1680886662703710700,5.273710693359375,3.8119089603424072,-0.5556268692016602,-2.4226419925689697
1680886662713750500,5.28375048828125,3.2534217834472656,-0.4814939498901367,-2.072159767150879
1680886662723790300,5.293790283203125,2.6652936935424805,-0.41500377655029297,-1.7065634727478027
1680886662733830400,5.303830322265625,2.134335517883301,-0.3191261291503906,-1.410637378692627
1680886662743870200,5.3138701171875,1.7008157968521118,-0.1848897933959961,-1.1891239881515503
1680886662753910000,5.323909912109375,1.476460576057434,0.011809349060058594,-1.0609345436096191
1680886662763950000,5.3339501953125,1.5481733083724976,0.26264476776123047,-1.0070425271987915
1680886662773990000,5.343989990234375,1.8571263551712036,0.5515317916870117,-0.9770763516426086
1680886662784030000,5.354030029296875,2.1689462661743164,0.7351417541503906,-0.8701532483100891
1680886662794069800,5.36406982421875,2.226383686065674,0.8289785385131836,-0.8157992959022522
1680886662804109600,5.374109619140625,2.0955958366394043,0.8600082397460938,-0.8372687101364136
1680886662814149600,5.384149658203125,1.9884905815124512,0.8698825836181641,-0.9231305718421936
1680886662824189400,5.394189453125,2.057096481323242,0.9200448989868164,-1.053511142730713
1680886662834229500,5.4042294921875,2.2292392253875732,1.036163330078125,-1.1843633651733398
1680886662844269300,5.414269287109375,2.395467758178711,1.233001708984375,-1.3039072751998901
1680886662854309000,5.42430908203125,2.5208897590637207,1.5078959465026855,-1.436934471130371
1680886662864349200,5.43434912109375,2.5871152877807617,1.8367156982421875,-1.6001431941986084
1680886662874389000,5.444388916015625,2.5761613845825195,2.1521220207214355,-1.8165899515151978
1680886662884429000,5.454428955078125,2.484293222427368,2.3891263008117676,-2.0844814777374268
1680886662894468900,5.46446875,2.376270055770874,2.535923957824707,-2.377926826477051
1680886662904508700,5.4745087890625,2.2819783687591553,2.6124672889709473,-2.64169979095459
1680886662914548700,5.484548828125,2.187002658843994,2.6436357498168945,-2.8450918197631836
1680886662924588500,5.494588623046875,2.0790181159973145,2.6374778747558594,-2.951202392578125
1680886662934628400,5.50462841796875,1.9480969905853271,2.6043357849121094,-2.959697723388672
1680886662944668400,5.51466845703125,1.767657995223999,2.5180559158325195,-2.8581771850585938
1680886662954708200,5.524708251953125,1.495142936706543,2.375887870788574,-2.7077760696411133
1680886662964748300,5.534748291015625,1.1022826433181763,2.1674346923828125,-2.518101453781128
1680886662974788000,5.5447880859375,0.58028244972229,1.879838466644287,-2.292151689529419
1680886662984828000,5.554827880859375,-0.013074159622192383,1.5151805877685547,-1.9679920673370361
1680886662994868000,5.564867919921875,-0.6229372024536133,1.0616464614868164,-1.4708563089370728
1680886663004907800,5.57490771484375,-1.363523006439209,0.4392051696777344,-0.778274655342102
1680886663014947800,5.58494775390625,-2.404336452484131,-0.3222465515136719,0.06395107507705688
1680886663024987600,5.594987548828125,-3.6774373054504395,-1.160466194152832,1.1248760223388672
1680886663035027500,5.60502734375,-4.633658409118652,-1.9617414474487305,2.322639226913452
1680886663045067500,5.615067626953125,-4.923152923583984,-2.551081657409668,3.3375496864318848
1680886663055107300,5.625107421875,-4.744390487670898,-2.8855209350585938,3.900658130645752
1680886663065147100,5.635147216796875,-4.358554840087891,-2.996476173400879,3.8878746032714844
1680886663075187200,5.645187255859375,-3.7490944862365723,-2.9085865020751953,3.378037691116333
1680886663085227000,5.65522705078125,-2.914340019226074,-2.6142940521240234,2.488344430923462
1680886663095267000,5.66526708984375,-2.0232160091400146,-2.1793508529663086,1.5670149326324463
1680886663105307000,5.675306884765625,-1.1535953283309937,-1.7130622863769531,0.9196709394454956
1680886663115346700,5.6853466796875,-0.3848247528076172,-1.2578058242797852,0.4294935464859009
1680886663125386800,5.69538671875,0.23220336437225342,-0.9446392059326172,-0.023123502731323242
1680886663135426600,5.705426513671875,0.6777061223983765,-0.9289436340332031,-0.5136013031005859
1680886663145466600,5.715466552734375,0.9409606456756592,-1.2124061584472656,-1.0034626722335815
1680886663155506400,5.72550634765625,0.869162917137146,-1.771780014038086,-1.449779987335205
1680886663165546500,5.73554638671875,0.12247180938720703,-2.605093002319336,-1.8145332336425781
1680886663175586300,5.74558642578125,-0.6033573150634766,-3.199399948120117,-1.9422028064727783
1680886663185626000,5.755626220703125,-0.7514845132827759,-3.0052919387817383,-1.8154467344284058
1680886663195666200,5.765666259765625,-0.4353410005569458,-2.190670967102051,-1.657509207725525
1680886663205706000,5.7757060546875,0.10828125476837158,-1.1181964874267578,-1.605888843536377
1680886663215745800,5.785745849609375,0.6597217917442322,-0.08676338195800781,-1.6252549886703491
1680886663225785900,5.795785888671875,1.0443838834762573,0.8408899307250977,-1.6329514980316162
1680886663235825700,5.80582568359375,1.2531338930130005,1.6710023880004883,-1.5875396728515625
1680886663245865700,5.81586572265625,1.3421063423156738,2.37166166305542,-1.492540717124939
1680886663255905500,5.825905517578125,1.3719435930252075,2.796656608581543,-1.3654975891113281
1680886663265945300,5.8359453125,1.4239113330841064,2.829305648803711,-1.2808812856674194
1680886663275985400,5.8459853515625,1.5176970958709717,2.5306215286254883,-1.2682243585586548
1680886663286025200,5.856025146484375,1.6560778617858887,2.0192618370056152,-1.2750825881958008
1680886663296065300,5.866065185546875,1.8601945638656616,1.3784189224243164,-1.2302147150039673
1680886663306105000,5.87610498046875,2.1655967235565186,0.6821098327636719,-1.108670711517334
1680886663316145200,5.886145263671875,2.500497817993164,0.0988912582397461,-0.9206488132476807
1680886663326185000,5.89618505859375,2.6878061294555664,-0.2669811248779297,-0.7101487517356873
1680886663336224800,5.906224853515625,2.718080520629883,-0.4105033874511719,-0.5228283405303955
1680886663346264800,5.916264892578125,2.610194206237793,-0.39128780364990234,-0.36996978521347046
1680886663356304600,5.9263046875,2.407335042953491,-0.24937152862548828,-0.2265719175338745
1680886663366344400,5.936344482421875,2.145576000213623,-0.0455322265625,-0.08401115238666534
1680886663376384500,5.946384521484375,1.8311127424240112,0.16972923278808594,0.059018924832344055
1680886663386424300,5.95642431640625,1.4601839780807495,0.3749685287475586,0.182607501745224
1680886663396464400,5.96646435546875,1.0633983612060547,0.6108827590942383,0.2854888141155243
1680886663406504200,5.976504150390625,0.6995904445648193,0.8392448425292969,0.35186895728111267
1680886663416544300,5.986544189453125,0.3860129117965698,1.0245866775512695,0.3937966823577881
1680886663426584000,5.996583984375,0.13501107692718506,1.146209716796875,0.4144853353500366
1680886663436624000,6.006623779296875,-0.08629414439201355,1.2168216705322266,0.4004797637462616
1680886663446664000,6.016663818359375,-0.31455910205841064,1.186568260192871,0.3375355005264282
1680886663456703700,6.026703857421875,-0.5988274812698364,0.9934473037719727,0.2267369031906128
1680886663466743600,6.03674365234375,-0.936917781829834,0.6880626678466797,0.12383642792701721
1680886663476783600,6.04678369140625,-1.2677083015441895,0.3595752716064453,0.05156177282333374
1680886663486823400,6.056823486328125,-1.5016660690307617,0.08048534393310547,0.017435014247894287
1680886663496863500,6.066863525390625,-1.588200330734253,-0.11522197723388672,0.03280329704284668
1680886663506903300,6.0769033203125,-1.5153462886810303,-0.19670963287353516,0.09309101104736328
1680886663516943400,6.086943359375,-1.3213913440704346,-0.16988849639892578,0.1559370756149292
1680886663526983200,6.096983154296875,-1.0624717473983765,-0.08617687225341797,0.22848188877105713
1680886663537023000,6.10702294921875,-0.7876260876655579,0.03680706024169922,0.3312729597091675
1680886663547063000,6.11706298828125,-0.5427292585372925,0.17698955535888672,0.45356959104537964
1680886663557102800,6.127102783203125,-0.34627246856689453,0.3054695129394531,0.5963572859764099
1680886663567143000,6.137142822265625,-0.22733211517333984,0.3866138458251953,0.750525176525116
1680886663577182700,6.1471826171875,-0.17752313613891602,0.4089794158935547,0.909095048904419
1680886663587222500,6.157222412109375,-0.18178462982177734,0.36835479736328125,1.0673725605010986
1680886663597262600,6.1672626953125,-0.24057739973068237,0.27707862854003906,1.2220686674118042
1680886663607302400,6.177302490234375,-0.36701929569244385,0.1567058563232422,1.3510587215423584
1680886663617342500,6.187342529296875,-0.5758001804351807,0.026350021362304688,1.4476325511932373
1680886663627382300,6.19738232421875,-0.8542866110801697,-0.08956718444824219,1.4949613809585571
1680886663637422000,6.207422119140625,-1.1227538585662842,-0.19962215423583984,1.500361442565918
1680886663647462100,6.217462158203125,-1.2958571910858154,-0.35038089752197266,1.4996477365493774
1680886663657502000,6.227501953125,-1.3269959688186646,-0.5290679931640625,1.5426030158996582
1680886663667542000,6.2375419921875,-1.2445036172866821,-0.7070760726928711,1.6423529386520386
1680886663677581800,6.247581787109375,-1.1010509729385376,-0.8874282836914062,1.788183331489563
1680886663687621600,6.25762158203125,-0.9735097289085388,-1.0662078857421875,1.9659819602966309
1680886663697661700,6.26766162109375,-0.8960288166999817,-1.237107276916504,2.133021116256714
1680886663707701500,6.277701416015625,-0.8723825812339783,-1.4148130416870117,2.2569947242736816
1680886663717741600,6.287741455078125,-0.8854535818099976,-1.6369876861572266,2.3251450061798096
1680886663727781400,6.297781494140625,-0.9289043545722961,-1.8717527389526367,2.3389148712158203
1680886663737821200,6.3078212890625,-1.0225450992584229,-2.090017318725586,2.2761216163635254
1680886663747861200,6.317861328125,-1.192711353302002,-2.274770736694336,2.1756136417388916
1680886663757901000,6.327901123046875,-1.478051781654358,-2.4111223220825195,2.061552047729492
1680886663767941000,6.337941162109375,-1.8574293851852417,-2.4908676147460938,1.974679946899414
1680886663777981000,6.34798095703125,-2.1960368156433105,-2.5702199935913086,1.9791326522827148
1680886663788020700,6.358020751953125,-2.4107303619384766,-2.6631622314453125,2.055604934692383
1680886663798060800,6.368060791015625,-2.5325145721435547,-2.720780372619629,2.1433167457580566
1680886663808100600,6.3781005859375,-2.6931300163269043,-2.6522932052612305,2.1808571815490723
1680886663818140700,6.388140625,-3.003204584121704,-2.391305923461914,2.105712413787842
1680886663828180500,6.398180419921875,-3.322793960571289,-1.9677915573120117,1.895735740661621
1680886663838220500,6.408220458984375,-3.388648748397827,-1.5033378601074219,1.5692822933197021
1680886663848260400,6.41826025390625,-3.1407179832458496,-1.0736150741577148,1.0947227478027344
1680886663858300200,6.428300048828125,-2.5117125511169434,-0.7472429275512695,0.5110203623771667
1680886663868340200,6.43834033203125,-1.481021761894226,-0.5987949371337891,-0.16778500378131866
1680886663878380000,6.448380126953125,-0.20962679386138916,-0.6091680526733398,-0.8835216164588928
1680886663888420000,6.458420166015625,1.065450668334961,-0.637420654296875,-1.431208610534668
1680886663898460000,6.4684599609375,2.133680582046509,-0.7284412384033203,-1.8489718437194824
1680886663908499700,6.478499755859375,2.953824043273926,-0.88494873046875,-2.268155813217163
1680886663918539800,6.488539794921875,3.586699962615967,-1.0788154602050781,-2.735163450241089
1680886663928579600,6.49857958984375,4.105563163757324,-1.2774162292480469,-3.208393096923828
1680886663938619600,6.50861962890625,4.467144966125488,-1.4183015823364258,-3.5303945541381836
1680886663948659500,6.518659423828125,4.556203842163086,-1.4764575958251953,-3.605393409729004
1680886663958699500,6.528699462890625,4.1772966384887695,-1.5462942123413086,-3.236971616744995
1680886663968739300,6.5387392578125,3.623330593109131,-1.5590381622314453,-2.7358505725860596
1680886663978779100,6.548779052734375,3.076489210128784,-1.4500646591186523,-2.423983097076416
1680886663988819200,6.558819091796875,2.5059521198272705,-1.3407087326049805,-2.150508165359497
1680886663998859000,6.56885888671875,2.2199625968933105,-1.1373538970947266,-1.832608699798584
1680886664008899000,6.578899169921875,2.287055492401123,-0.8404502868652344,-1.3795578479766846
1680886664018939000,6.58893896484375,2.4981303215026855,-0.40819740295410156,-0.9390164613723755
1680886664028979000,6.59897900390625,2.6143059730529785,0.0613555908203125,-0.6271459460258484
1680886664039018800,6.609018798828125,2.4213461875915527,0.48880958557128906,-0.5157036781311035
1680886664049058600,6.61905859375,2.159572124481201,0.93853759765625,-0.6656494140625
1680886664059098600,6.6290986328125,2.0665712356567383,1.4093914031982422,-0.9680137038230896
1680886664069138400,6.639138427734375,2.18858003616333,1.8656392097473145,-1.2718729972839355
1680886664079178500,6.649178466796875,2.4577572345733643,2.2742228507995605,-1.5314918756484985
1680886664089218300,6.65921826171875,2.7668607234954834,2.625112533569336,-1.7412537336349487
1680886664099258000,6.669258056640625,3.019430160522461,2.9091739654541016,-1.9322584867477417
1680886664109298200,6.679298095703125,3.142357587814331,3.1495375633239746,-2.1495485305786133
1680886664119338000,6.689337890625,3.144744396209717,3.3497085571289062,-2.394148349761963
1680886664129378000,6.6993779296875,3.046619176864624,3.520782470703125,-2.642289161682129
1680886664139417900,6.70941796875,2.9088997840881348,3.6510262489318848,-2.892618417739868
1680886664149457700,6.719457763671875,2.7810959815979004,3.74381160736084,-3.100050926208496
1680886664159497700,6.729497802734375,2.6747939586639404,3.78580904006958,-3.2360591888427734
1680886664169537500,6.73953759765625,2.5638084411621094,3.7391366958618164,-3.2725791931152344
1680886664179577600,6.74957763671875,2.381319522857666,3.5842390060424805,-3.221222400665283
1680886664189617400,6.759617431640625,2.0546584129333496,3.324647903442383,-3.110238790512085
1680886664199657500,6.769657470703125,1.553078532218933,2.953697681427002,-2.925084352493286
1680886664209697300,6.779697265625,0.9088864326477051,2.4124603271484375,-2.669832706451416
1680886664219737000,6.789737060546875,0.15094518661499023,1.6188960075378418,-2.294297218322754
1680886664229777200,6.799777099609375,-0.8858959674835205,0.4899635314941406,-1.599691390991211
1680886664239817000,6.80981689453125,-2.5100107192993164,-0.9231157302856445,-0.5263959765434265
1680886664249857000,6.81985693359375,-4.416179656982422,-2.517960548400879,0.9487169981002808
1680886664259896800,6.829896728515625,-5.380927085876465,-3.8398494720458984,2.499678373336792
1680886664269937000,6.83993701171875,-5.483645439147949,-4.520461082458496,3.799689769744873
1680886664279976700,6.849976806640625,-5.333369731903076,-4.636648178100586,4.515636920928955
1680886664290016500,6.8600166015625,-4.9846625328063965,-4.374994277954102,4.494260311126709
1680886664300056600,6.870056640625,-4.376589298248291,-3.7843732833862305,3.8381547927856445
1680886664310096400,6.880096435546875,-3.482814311981201,-2.9452295303344727,2.7476701736450195
1680886664320136400,6.890136474609375,-2.347071647644043,-1.9616718292236328,1.5761888027191162
1680886664330176300,6.90017626953125,-1.2282077074050903,-1.1764097213745117,0.6601619720458984
1680886664340216300,6.91021630859375,-0.20258963108062744,-0.7442893981933594,0.07846200466156006
1680886664350256000,6.920256103515625,0.5883329510688782,-0.6616621017456055,-0.3565993309020996
1680886664360296200,6.930296142578125,1.1265757083892822,-0.9121885299682617,-0.7166342735290527
1680886664370336000,6.9403359375,1.480161428451538,-1.449204444885254,-1.020715594291687
1680886664380375800,6.950375732421875,1.7060792446136475,-2.202699661254883,-1.2656749486923218
1680886664390416000,6.960415771484375,1.6549595594406128,-2.959292411804199,-1.430779218673706
1680886664400455700,6.97045556640625,0.32733333110809326,-3.5409393310546875,-1.2024364471435547
1680886664410495700,6.980495849609375,-0.7052154541015625,-3.3352737426757812,-0.8476749658584595
1680886664420535600,6.99053564453125,-0.917544960975647,-2.434809684753418,-0.7225489020347595
1680886664430575600,7.00057568359375,-0.5935827493667603,-1.232783317565918,-0.8299379348754883
1680886664440615400,7.010615478515625,-0.09319484233856201,0.036963462829589844,-1.071945309638977
1680886664450655200,7.0206552734375,0.33953166007995605,1.2534141540527344,-1.3493341207504272
1680886664460695300,7.0306953125,0.605080783367157,2.3144173622131348,-1.5836433172225952
1680886664470735000,7.040735107421875,0.7268075942993164,2.9902238845825195,-1.7234513759613037
1680886664480775200,7.050775146484375,0.7898154258728027,3.177025318145752,-1.7656933069229126
1680886664490815000,7.06081494140625,0.8939943313598633,2.973738670349121,-1.7291247844696045
1680886664500855000,7.07085498046875,1.097641944885254,2.489651679992676,-1.6179301738739014
1680886664510894800,7.080894775390625,1.3893316984176636,1.8413219451904297,-1.5118716955184937
1680886664520934700,7.0909345703125,1.7434110641479492,1.130533218383789,-1.3825159072875977
1680886664530974700,7.100974609375,2.1294617652893066,0.45881080627441406,-1.1636433601379395
1680886664541014500,7.1110146484375,2.456143379211426,-0.029684066772460938,-0.8518667221069336
1680886664551054600,7.1210546875,2.636382818222046,-0.28282737731933594,-0.5259069800376892
1680886664561094400,7.131094482421875,2.641489028930664,-0.3477210998535156,-0.2113642692565918
1680886664571134500,7.141134521484375,2.453233480453491,-0.27931785583496094,0.03057125210762024
1680886664581174300,7.15117431640625,2.1151585578918457,-0.1344442367553711,0.206158846616745
1680886664591214000,7.161214111328125,1.7023992538452148,0.07665157318115234,0.33339643478393555
1680886664601254100,7.171254150390625,1.2812424898147583,0.31824684143066406,0.41716185212135315
1680886664611294000,7.1812939453125,0.9019420742988586,0.5073814392089844,0.4910733699798584
1680886664621334000,7.191333984375,0.5524730682373047,0.6041555404663086,0.5537737011909485
1680886664631373800,7.201373779296875,-0.03298628330230713,0.634913444519043,0.5845587253570557
1680886664641414000,7.211413818359375,-0.9459480047225952,0.5708255767822266,0.5795588493347168
1680886664651453700,7.22145361328125,-1.7418957948684692,0.504033088684082,0.4805685877799988
1680886664661493500,7.231493408203125,-2.2027344703674316,0.4339160919189453,0.34418874979019165
1680886664671533600,7.241533447265625,-2.3241217136383057,0.36122989654541016,0.1838984489440918
1680886664681573400,7.251573486328125,-2.1875689029693604,0.29266834259033203,0.04749858379364014
1680886664691613400,7.261613525390625,-1.8660461902618408,0.2533292770385742,-0.024603843688964844
1680886664701653200,7.2716533203125,-1.446326494216919,0.25392627716064453,-0.015445709228515625
1680886664711693300,7.281693359375,-1.0149965286254883,0.3295869827270508,0.0709870457649231
1680886664721733000,7.291733154296875,-0.6432735919952393,0.45632266998291016,0.23260924220085144
1680886664731773200,7.301773193359375,-0.34831053018569946,0.5890216827392578,0.4514029622077942
1680886664741813000,7.31181298828125,-0.11910849809646606,0.7063674926757812,0.6647311449050903
1680886664751853000,7.32185302734375,0.06657087802886963,0.7961807250976562,0.8469310998916626
1680886664761892900,7.331892822265625,0.2186231017112732,0.807891845703125,0.9877913594245911
1680886664771932700,7.3419326171875,0.32034045457839966,0.7030887603759766,1.1027977466583252
1680886664781972700,7.35197265625,0.35761725902557373,0.4938640594482422,1.1801650524139404
1680886664792012500,7.362012451171875,0.32549500465393066,0.23798561096191406,1.2240147590637207
1680886664802052600,7.372052490234375,0.2249746322631836,-0.04719829559326172,1.214418888092041
1680886664812092400,7.382092529296875,0.0585557222366333,-0.3491344451904297,1.1707675457000732
1680886664822132500,7.392132568359375,-0.1576606035232544,-0.6531791687011719,1.11275315284729
1680886664832172300,7.40217236328125,-0.46374332904815674,-0.9676237106323242,1.0596743822097778
1680886664842212000,7.412212158203125,-1.001248836517334,-1.3324041366577148,1.0421991348266602
1680886664852252200,7.422252197265625,-1.716451644897461,-1.6973819732666016,1.1448886394500732
1680886664862292000,7.4322919921875,-2.4204154014587402,-1.9999761581420898,1.4150903224945068
1680886664872332000,7.44233203125,-2.98483943939209,-2.2242612838745117,1.825078010559082
1680886664882371800,7.452371826171875,-3.3547167778015137,-2.3715953826904297,2.2822883129119873
1680886664892412000,7.462411865234375,-3.5282201766967773,-2.5028953552246094,2.7174201011657715
1680886664902451700,7.47245166015625,-3.561491012573242,-2.7135839462280273,3.0376973152160645
1680886664912491500,7.482491455078125,-3.6008760929107666,-3.0004730224609375,3.208763599395752
1680886664922531600,7.492531494140625,-3.9262027740478516,-3.2435426712036133,3.2216529846191406
1680886664932571400,7.5025712890625,-4.572685241699219,-3.4281845092773438,3.1780357360839844
1680886664942611500,7.512611572265625,-5.31935453414917,-3.4519262313842773,3.053253650665283
1680886664952651300,7.5226513671875,-6.238528251647949,-3.39825439453125,2.852003335952759
1680886664962691300,7.53269140625,-5.381687641143799,-3.1756343841552734,2.480490207672119
1680886664972731100,7.542731201171875,-3.248041868209839,-2.7420730590820312,1.9592275619506836
1680886664982771200,7.552771240234375,-1.0970596075057983,-2.3437881469726562,1.458662748336792
1680886664992811000,7.56281103515625,0.7516805529594421,-2.030496597290039,1.020198941230774
1680886665002851000,7.57285107421875,2.1077966690063477,-1.7815446853637695,0.6032462120056152
1680886665012891000,7.582890869140625,2.955430269241333,-1.604813575744629,0.19880594313144684
1680886665022930700,7.5929306640625,3.418429374694824,-1.51434326171875,-0.19254279136657715
1680886665032970800,7.602970703125,3.667720317840576,-1.5148963928222656,-0.5706163644790649
1680886665043010600,7.613010498046875,3.8187639713287354,-1.582352638244629,-0.9982710480690002
1680886665053050600,7.623050537109375,3.9123759269714355,-1.6708059310913086,-1.4269130229949951
1680886665063090400,7.63309033203125,3.9390058517456055,-1.7510757446289062,-1.8040879964828491
1680886665073130500,7.643130615234375,3.932607412338257,-1.7530574798583984,-2.1072096824645996
1680886665083170300,7.65317041015625,3.96305513381958,-1.553380012512207,-2.3315141201019287
1680886665093210400,7.66321044921875,3.9857115745544434,-1.186274528503418,-2.43338680267334
1680886665103250200,7.673250244140625,3.9679150581359863,-0.7004375457763672,-2.46437931060791
1680886665113290200,7.683290283203125,3.8204307556152344,-0.14756011962890625,-2.515068292617798
1680886665123330000,7.693330078125,3.5522892475128174,0.3623514175415039,-2.534723997116089
1680886665133369900,7.703369873046875,3.1763079166412354,0.7595329284667969,-2.4735841751098633
1680886665143410000,7.713409912109375,2.7483503818511963,1.0806407928466797,-2.357970714569092
1680886665153449700,7.72344970703125,2.413217067718506,1.3697490692138672,-2.1716957092285156
1680886665163489800,7.73348974609375,2.2549149990081787,1.6460747718811035,-1.9672012329101562
1680886665173529600,7.743529541015625,2.128610372543335,1.8869519233703613,-1.843423843383789
1680886665183569700,7.753569580078125,1.9449552297592163,2.047074317932129,-1.78853178024292
1680886665193609500,7.763609375,1.7256373167037964,2.1481828689575195,-1.7845293283462524
1680886665203649500,7.7736494140625,1.6452937126159668,2.2261505126953125,-1.7933361530303955
1680886665213689300,7.783689453125,1.7342017889022827,2.319246292114258,-1.8215675354003906
1680886665223729400,7.7937294921875,1.9133895635604858,2.4641966819763184,-1.9081189632415771
1680886665233769200,7.803769287109375,2.0578274726867676,2.6651535034179688,-1.98470938205719
1680886665243809000,7.81380908203125,2.095241069793701,2.902341365814209,-2.0394127368927
1680886665253849000,7.82384912109375,2.064164400100708,3.201018810272217,-2.1543521881103516
1680886665263889000,7.833888916015625,2.047351598739624,3.4745922088623047,-2.2426867485046387
1680886665273929000,7.843928955078125,2.052668571472168,3.6773667335510254,-2.288996458053589
1680886665283968800,7.85396875,2.032783269882202,3.7971010208129883,-2.2986509799957275
1680886665294008800,7.8640087890625,1.922216773033142,3.8305516242980957,-2.262065887451172
1680886665304048600,7.874048583984375,1.6178114414215088,3.7472314834594727,-2.228656053543091
1680886665314088700,7.884088623046875,1.035561203956604,3.4919519424438477,-2.2329373359680176
1680886665324128500,7.89412841796875,0.30981743335723877,2.963062286376953,-2.1406478881835938
1680886665334168600,7.90416845703125,-0.5293776988983154,2.073453903198242,-1.7419073581695557
1680886665344208400,7.91420849609375,-1.526545763015747,0.9199810028076172,-0.9683476686477661
1680886665354248200,7.924248291015625,-2.567748546600342,-0.2917747497558594,0.11047089099884033
1680886665364288300,7.934288330078125,-3.289707660675049,-1.3124408721923828,1.3208839893341064
1680886665374328000,7.944328125,-3.6354434490203857,-2.0476980209350586,2.4802563190460205
1680886665384368000,7.9543681640625,-3.59254789352417,-2.468796730041504,3.419351816177368
1680886665394408000,7.964407958984375,-3.1214356422424316,-2.561617851257324,3.966986656188965
1680886665404448000,7.974447998046875,-2.3543972969055176,-2.379347801208496,4.036123275756836
1680886665414487800,7.98448779296875,-1.4541778564453125,-1.9895401000976562,3.6757583618164062
1680886665424528000,7.99452783203125,-0.541140079498291,-1.4414854049682617,2.900130033493042
1680886665434567700,8.004567626953126,0.24156785011291504,-0.7580795288085938,1.896039605140686
1680886665444607700,8.014607666015625,0.7998413443565369,0.033412933349609375,1.0623012781143188
1680886665454647600,8.0246474609375,1.1365842819213867,0.6943569183349609,0.5788578987121582
1680886665464687600,8.0346875,1.316079020500183,1.0915355682373047,0.34870004653930664
1680886665474727400,8.0447275390625,1.3981492519378662,1.2408981323242188,0.23858773708343506
1680886665484767500,8.054767578125,1.4144738912582397,1.1194820404052734,0.2150949239730835
1680886665494807300,8.064807373046875,1.3128256797790527,0.6876716613769531,0.23672831058502197
1680886665504847000,8.07484716796875,1.093145489692688,-0.125579833984375,0.23862814903259277
1680886665514887200,8.08488720703125,0.664995551109314,-1.4474458694458008,0.3104121685028076
1680886665524927000,8.094927001953126,-0.5109977722167969,-3.196321487426758,0.2696818709373474
1680886665534967000,8.104967041015625,-2.0810344219207764,-5.08363151550293,-0.04992145299911499
1680886665545006800,8.1150068359375,-3.044001579284668,-6.440084457397461,-0.60768061876297
1680886665555047000,8.125046875,-3.1354198455810547,-6.744063377380371,-1.1601903438568115
1680886665565086700,8.135086669921876,-2.526540756225586,-6.0093183517456055,-1.6181880235671997
1680886665575126800,8.145126708984375,-1.649981141090393,-4.586504936218262,-2.062753200531006
1680886665585166600,8.15516650390625,-0.7768145799636841,-2.9311065673828125,-2.4186758995056152
1680886665595206700,8.16520654296875,-0.028581738471984863,-1.311410903930664,-2.5356552600860596
1680886665605246500,8.17524658203125,0.5361019968986511,0.17932510375976562,-2.4945499897003174
1680886665615286500,8.18528662109375,0.9611876010894775,1.5055227279663086,-2.412398338317871
1680886665625326300,8.195326416015625,1.337913155555725,2.6225357055664062,-2.3678009510040283
1680886665635366400,8.205366455078124,1.747563362121582,3.3262758255004883,-2.3827407360076904
1680886665645406200,8.21540625,2.1936166286468506,3.5638937950134277,-2.5043392181396484
1680886665655446000,8.225446044921876,2.6149959564208984,3.3180713653564453,-2.687793731689453
1680886665665486000,8.235486083984375,2.9960861206054688,2.745354652404785,-2.8173301219940186
1680886665675526000,8.24552587890625,3.305952787399292,2.0160279273986816,-2.8737080097198486
1680886665685566000,8.25556591796875,3.4956798553466797,1.2800045013427734,-2.8743724822998047
1680886665695605800,8.265605712890626,3.465620279312134,0.6764669418334961,-2.8230509757995605
1680886665705645800,8.275645751953125,3.251507520675659,0.28273773193359375,-2.750298261642456
1680886665715685600,8.285685546875,2.919964551925659,0.045601844787597656,-2.659032106399536
1680886665725725700,8.2957255859375,2.530691146850586,-0.08280086517333984,-2.539456605911255
1680886665735765500,8.305765625,2.1123545169830322,-0.11682319641113281,-2.382403612136841
1680886665745805600,8.3158056640625,1.6702488660812378,-0.08528327941894531,-2.191051483154297
1680886665755845400,8.325845458984375,1.1354944705963135,0.03974628448486328,-1.9344316720962524
1680886665765885400,8.335885498046874,-0.17588360607624054,0.2456979751586914,-1.2922310829162598
1680886665775925200,8.34592529296875,-1.7909653186798096,0.3148641586303711,-0.43465521931648254
1680886665785965000,8.355965087890626,-2.9822940826416016,0.36525535583496094,0.3523573875427246
1680886665796005000,8.366005126953125,-3.4061617851257324,0.4304933547973633,0.8865864276885986
1680886665806045000,8.376044921875,-3.1643238067626953,0.4513664245605469,1.1366229057312012
1680886665816085000,8.3860849609375,-2.518838882446289,0.4847679138183594,1.2144982814788818
1680886665826124800,8.396124755859375,-1.704662799835205,0.553767204284668,1.270986795425415
1680886665836164900,8.406164794921875,-0.8914302587509155,0.6685428619384766,1.3734216690063477
1680886665846204700,8.41620458984375,-0.16433042287826538,0.8212251663208008,1.5111440420150757
1680886665856244700,8.42624462890625,0.39285504817962646,0.9733619689941406,1.6212832927703857
1680886665866284500,8.436284423828125,0.7166756987571716,1.0556097030639648,1.7034111022949219
1680886665876324600,8.44632470703125,0.8402051329612732,1.0465850830078125,1.7748148441314697
1680886665886364400,8.456364501953125,0.8144755959510803,0.9393224716186523,1.8156763315200806
1680886665896404500,8.466404541015624,0.6887195706367493,0.7294425964355469,1.7958098649978638
1680886665906444300,8.4764443359375,0.4975903034210205,0.4415407180786133,1.7338073253631592
1680886665916484400,8.486484375,0.27555131912231445,0.14342021942138672,1.6312246322631836
1680886665926524200,8.496524169921875,0.02922356128692627,-0.12104988098144531,1.5012445449829102
1680886665936564200,8.506564208984376,-0.25753533840179443,-0.3394622802734375,1.3517013788223267
1680886665946604000,8.51660400390625,-0.6487765312194824,-0.49112796783447266,1.179809808731079
1680886665956644000,8.52664404296875,-1.1597590446472168,-0.569880485534668,0.9869812726974487
1680886665966684000,8.536683837890624,-1.725986123085022,-0.6364154815673828,0.8295673727989197
1680886665976724000,8.546723876953125,-2.1907858848571777,-0.7424354553222656,0.8360463976860046
1680886665986763800,8.556763671875,-2.4362664222717285,-0.8855018615722656,1.0457277297973633
1680886665996803800,8.566803955078125,-2.4451184272766113,-1.0010576248168945,1.3916430473327637
1680886666006843600,8.57684375,-2.3081867694854736,-1.0530338287353516,1.7709190845489502
1680886666016883500,8.586883544921875,-2.1403603553771973,-1.0680418014526367,2.1538023948669434
1680886666026923500,8.596923583984376,-2.0129427909851074,-1.1022624969482422,2.500737190246582
1680886666036963600,8.606963623046875,-1.9437153339385986,-1.2501678466796875,2.771622657775879
1680886666047003400,8.61700341796875,-1.9160218238830566,-1.4980850219726562,2.9363203048706055
1680886666057043200,8.627043212890625,-1.9084573984146118,-1.7973661422729492,3.021998882293701
1680886666067083300,8.637083251953126,-1.9374158382415771,-2.1264781951904297,3.0722739696502686
1680886666077123000,8.647123046875,-2.078632116317749,-2.4426212310791016,3.107710838317871
1680886666087163100,8.6571630859375,-2.386275291442871,-2.6329660415649414,3.1509904861450195
1680886666097203000,8.667202880859374,-2.780184745788574,-2.653055191040039,3.205799102783203
1680886666107243000,8.677242919921875,-3.1499252319335938,-2.542849540710449,3.2605702877044678
1680886666117282800,8.68728271484375,-3.3942224979400635,-2.335113525390625,3.2861404418945312
1680886666127323000,8.697322998046875,-3.44476056098938,-2.079488754272461,3.259564161300659
1680886666137362700,8.70736279296875,-3.325498104095459,-1.831559181213379,3.1971306800842285
1680886666147402800,8.71740283203125,-3.07003116607666,-1.6346235275268555,3.069429874420166
1680886666157442600,8.727442626953126,-2.6992287635803223,-1.5564470291137695,2.8358559608459473
1680886666167482600,8.737482666015625,-2.1919312477111816,-1.6429252624511719,2.360610246658325
1680886666177522400,8.7475224609375,-1.4770746231079102,-1.846343994140625,1.6139755249023438
1680886666187562500,8.7575625,-0.5535396337509155,-2.117341995239258,0.7423489093780518
1680886666197602300,8.767602294921875,0.5050210952758789,-2.3111610412597656,-0.12886573374271393
1680886666207642400,8.777642333984375,1.5454120635986328,-2.4562244415283203,-0.8996959924697876
1680886666217682200,8.78768212890625,2.4542808532714844,-2.657896041870117,-1.6152534484863281
1680886666227722200,8.79772216796875,3.194042921066284,-2.89215087890625,-2.3520100116729736
1680886666237762000,8.807761962890625,3.819708824157715,-3.0991878509521484,-2.9979615211486816
1680886666247802000,8.817802001953124,4.352809429168701,-3.1204748153686523,-3.3980395793914795
1680886666257842000,8.827842041015625,4.7851057052612305,-2.8949575424194336,-3.4511258602142334
1680886666267882000,8.837882080078124,5.097720146179199,-2.448272705078125,-3.144331932067871
1680886666277921800,8.847921875,5.226975440979004,-1.786818504333496,-2.682847261428833
1680886666287961900,8.8579619140625,5.183099746704102,-1.0675668716430664,-2.1624362468719482
1680886666298001700,8.868001708984375,4.5873703956604,-0.4711437225341797,-1.4672092199325562
1680886666308041700,8.878041748046876,3.5887644290924072,0.011265754699707031,-0.7197675108909607
1680886666318081500,8.88808154296875,2.9417366981506348,0.44728565216064453,-0.225691020488739
1680886666328121600,8.89812158203125,2.6507208347320557,0.8035755157470703,0.05108749866485596
1680886666338161400,8.908161376953124,2.520782470703125,1.1066484451293945,0.0642780065536499
1680886666348201500,8.918201416015625,2.4445104598999023,1.358469009399414,-0.16346848011016846
1680886666358241300,8.9282412109375,2.258659839630127,1.57496976852417,-0.6147669553756714
1680886666368281300,8.93828125,2.0068423748016357,1.7035045623779297,-1.1140451431274414
1680886666378321200,8.948321044921874,1.8371875286102295,1.7806048393249512,-1.5300061702728271
1680886666388361200,8.958361328125,1.8238661289215088,1.8179068565368652,-1.8443628549575806
1680886666398401000,8.968401123046876,1.9390332698822021,1.8362922668457031,-2.1448240280151367
1680886666408441000,8.978441162109375,2.1745765209198,1.8610725402832031,-2.500365734100342
1680886666418481000,8.98848095703125,2.488201141357422,1.9164910316467285,-2.909794330596924
1680886666428521000,8.99852099609375,2.761139154434204,2.0259127616882324,-3.301748275756836
1680886666438560800,9.008560791015626,2.892482042312622,2.211141586303711,-3.6576521396636963
1680886666448600600,9.0186005859375,2.8986451625823975,2.4456119537353516,-3.9894609451293945
1680886666458640600,9.028640625,2.8525142669677734,2.7059736251831055,-4.258599281311035
1680886666468680700,9.0386806640625,2.8029046058654785,2.947596549987793,-4.432889938354492
1680886666478720500,9.048720458984375,2.7364137172698975,3.1447014808654785,-4.5073113441467285
1680886666488760300,9.05876025390625,2.5735483169555664,3.2921462059020996,-4.515019416809082
1680886666498800400,9.06880029296875,2.199962615966797,3.366888999938965,-4.464195251464844
1680886666508840400,9.07884033203125,1.6028854846954346,3.3381166458129883,-4.370040416717529
1680886666518880300,9.08888037109375,0.815106213092804,3.1393790245056152,-4.233855247497559
1680886666528920000,9.098920166015626,-0.12773728370666504,2.651780128479004,-3.9905405044555664
1680886666538960100,9.108960205078125,-1.3676711320877075,1.7333102226257324,-3.354898691177368
1680886666549000200,9.119000244140626,-3.321782112121582,0.4183187484741211,-2.1884899139404297
1680886666559040000,9.1290400390625,-5.302882194519043,-1.1518526077270508,-0.5467429757118225
1680886666569079800,9.139079833984376,-6.0923566818237305,-2.583621025085449,1.1788759231567383
1680886666579119900,9.149119873046875,-5.841236114501953,-3.609254837036133,2.805192470550537
1680886666589160000,9.159159912109375,-5.26844596862793,-4.112824440002441,4.02655553817749
1680886666599199700,9.16919970703125,-4.684396266937256,-4.2092742919921875,4.667315483093262
1680886666609239600,9.179239501953125,-4.004308700561523,-4.033722877502441,4.7465972900390625
1680886666619279600,9.189279541015624,-3.118316650390625,-3.594729423522949,4.309991836547852
1680886666629319700,9.199319580078125,-2.0392942428588867,-2.8822669982910156,3.376004695892334
1680886666639359500,9.209359375,-0.8179632425308228,-2.003650665283203,2.327394485473633
1680886666649399300,9.2193994140625,0.3352136015892029,-1.150090217590332,1.463449239730835
1680886666659439400,9.229439453125,1.1802114248275757,-0.7285604476928711,1.0170314311981201
1680886666669479200,9.239479248046875,1.7027266025543213,-0.7388553619384766,0.9086143970489502
1680886666679519200,9.249519287109376,2.0206665992736816,-1.032679557800293,0.8887054920196533
1680886666689559300,9.259559326171875,2.2065720558166504,-1.639409065246582,0.7991828918457031
1680886666699599000,9.26959912109375,2.2426576614379883,-2.452373504638672,0.626659631729126
1680886666709639000,9.279638916015625,1.6408324241638184,-3.313845634460449,0.425468385219574
1680886666719679000,9.289678955078125,0.7019504308700562,-3.7507505416870117,0.3564819097518921
1680886666729719000,9.299718994140624,0.30831342935562134,-3.3842220306396484,0.24329042434692383
1680886666739758800,9.3097587890625,0.39563900232315063,-2.4332361221313477,-0.008479058742523193
1680886666749798700,9.319798583984374,0.6338578462600708,-1.226858139038086,-0.393464595079422
1680886666759838700,9.329838623046875,0.830979585647583,-0.0061244964599609375,-0.7745412588119507
1680886666769878800,9.339878662109374,0.9365594387054443,1.1160659790039062,-1.0465068817138672
1680886666779918600,9.349918701171875,0.8214623928070068,2.1907448768615723,-1.2911080121994019
1680886666789958400,9.35995849609375,0.3719193935394287,2.936830520629883,-1.7082853317260742
1680886666799998500,9.36999853515625,-0.12589901685714722,3.189058780670166,-2.159648895263672
1680886666810038500,9.38003857421875,-0.3421468734741211,2.9785757064819336,-2.414425849914551
1680886666820078300,9.390078369140625,-0.2060118317604065,2.5389151573181152,-2.5394256114959717
1680886666830118400,9.400118408203125,0.166205495595932,1.943044662475586,-2.577174425125122
1680886666840158200,9.410158203125,0.6632559299468994,1.2661075592041016,-2.5460429191589355
1680886666850198300,9.4201982421875,1.2320348024368286,0.6453332901000977,-2.4573848247528076
1680886666860238000,9.430238037109374,1.7998965978622437,0.26312732696533203,-2.297224998474121
1680886666870278100,9.440278076171875,2.284572124481201,0.14606380462646484,-2.046452283859253
1680886666880318000,9.45031787109375,2.603724956512451,0.17911243438720703,-1.7436810731887817
1680886666890358000,9.46035791015625,2.673916816711426,0.2633323669433594,-1.4293328523635864
1680886666900397800,9.470397705078126,2.5103466510772705,0.35221099853515625,-1.1011440753936768
1680886666910438000,9.48043798828125,2.2033298015594482,0.4330167770385742,-0.7837421298027039
1680886666920477700,9.490477783203126,1.8243365287780762,0.5362081527709961,-0.4881293773651123
1680886666930517800,9.500517822265625,1.4054449796676636,0.6562089920043945,-0.18471157550811768
1680886666940557600,9.5105576171875,0.8683337569236755,0.7750873565673828,0.17710500955581665
1680886666950597600,9.52059765625,0.21320754289627075,0.837432861328125,0.5914947390556335
1680886666960637400,9.530637451171875,-0.47969502210617065,0.8493137359619141,0.9651806354522705
1680886666970677500,9.540677490234375,-1.1080920696258545,0.8009414672851562,1.2258679866790771
1680886666980717300,9.55071728515625,-1.5441936254501343,0.713221549987793,1.3370927572250366
1680886666990757400,9.56075732421875,-1.7469310760498047,0.5845403671264648,1.3536434173583984
1680886667000797200,9.570797119140625,-1.7310270071029663,0.48391056060791016,1.354217529296875
1680886667010837200,9.580837158203124,-1.5497581958770752,0.45541858673095703,1.358036756515503
1680886667020877000,9.590876953125,-1.2752444744110107,0.49033451080322266,1.3406611680984497
1680886667030917000,9.600917236328126,-0.9876053333282471,0.556645393371582,1.3114547729492188
1680886667040957000,9.61095703125,-0.7441142797470093,0.618316650390625,1.3052215576171875
1680886667050997000,9.6209970703125,-0.5680002570152283,0.6350870132446289,1.3259795904159546
1680886667061036800,9.631036865234375,-0.4596547484397888,0.6003217697143555,1.3719912767410278
1680886667071076900,9.641076904296876,-0.4103391170501709,0.5071954727172852,1.419975757598877
1680886667081116700,9.65111669921875,-0.4327622652053833,0.35320281982421875,1.448552131652832
1680886667091156700,9.66115673828125,-0.5588069558143616,0.1570444107055664,1.4525563716888428
1680886667101196500,9.671196533203124,-0.8271046280860901,-0.045563697814941406,1.4244574308395386
1680886667111236600,9.681236572265625,-1.2507493495941162,-0.24650192260742188,1.3566455841064453
1680886667121276400,9.6912763671875,-1.7741906642913818,-0.4672985076904297,1.2640225887298584
1680886667131316500,9.70131640625,-2.2747750282287598,-0.7168760299682617,1.1681703329086304
1680886667141356500,9.7113564453125,-2.643054485321045,-0.9642305374145508,1.1146881580352783
1680886667151396400,9.721396240234375,-2.798081159591675,-1.1730175018310547,1.1583760976791382
1680886667161436200,9.731436279296876,-2.7110795974731445,-1.3137216567993164,1.3455448150634766
1680886667171476200,9.741476318359375,-2.448814630508423,-1.3766155242919922,1.674891710281372
1680886667181516300,9.751516357421876,-2.0995893478393555,-1.4230985641479492,2.0957300662994385
1680886667191556000,9.76155615234375,-1.7362408638000488,-1.521036148071289,2.545921802520752
1680886667201596200,9.77159619140625,-1.431262731552124,-1.7207469940185547,2.9753880500793457
1680886667211636000,9.781635986328125,-1.2626566886901855,-2.019272804260254,3.3333234786987305
1680886667221676000,9.791676025390625,-1.3148317337036133,-2.3656206130981445,3.585172653198242
1680886667231715800,9.8017158203125,-1.6349714994430542,-2.6512928009033203,3.7331361770629883
1680886667241756000,9.811755859375,-2.120765447616577,-2.803071975708008,3.8143861293792725
1680886667251795700,9.821795654296874,-2.6398203372955322,-2.816967010498047,3.86818790435791
1680886667261835800,9.831835693359375,-3.037541627883911,-2.7365007400512695,3.8621113300323486
1680886667271875600,9.84187548828125,-3.24857497215271,-2.625164031982422,3.7636678218841553
1680886667281915600,9.85191552734375,-3.3351709842681885,-2.4532346725463867,3.5186715126037598
1680886667291955500,9.86195556640625,-3.21822452545166,-2.2559261322021484,3.112694263458252
1680886667301995500,9.87199560546875,-2.964895486831665,-2.1804723739624023,2.526949882507324
1680886667312035300,9.882035400390626,-2.6452558040618896,-2.2589731216430664,1.6264619827270508
1680886667322075400,9.892075439453125,-1.9072388410568237,-2.4513607025146484,0.5198084115982056
1680886667332115200,9.902115234375,-0.6780996322631836,-2.6573715209960938,-0.526775062084198
1680886667342155300,9.9121552734375,0.6126319766044617,-2.817880630493164,-1.3148930072784424
1680886667352195000,9.922195068359375,1.6442880630493164,-3.018838882446289,-1.9696340560913086
1680886667362235100,9.932235107421874,2.402735710144043,-3.253140449523926,-2.6486527919769287
1680886667372275200,9.942275146484375,2.990051507949829,-3.4631404876708984,-3.3860156536102295
1680886667382315000,9.95231494140625,3.4944281578063965,-3.5533008575439453,-4.118436813354492
1680886667392355000,9.96235498046875,3.920492649078369,-3.4515228271484375,-4.61581563949585
1680886667402395000,9.972394775390624,4.229864597320557,-3.0807743072509766,-4.762716293334961
1680886667412434700,9.9824345703125,4.240423202514648,-2.462736129760742,-4.522056579589844
1680886667422474800,9.992474853515626,3.6742100715637207,-1.601811408996582,-3.9169323444366455
1680886667432514800,10.002514892578125,2.8747334480285645,-0.6569910049438477,-3.135164260864258
1680886667442554600,10.0125546875,2.2162508964538574,0.1878681182861328,-2.524796485900879
1680886667452594700,10.0225947265625,1.9267163276672363,0.8113508224487305,-2.1779356002807617
1680886667462634500,10.032634521484376,2.0454046726226807,1.2771501541137695,-1.969797134399414
1680886667472674600,10.042674560546875,2.3768246173858643,1.668065071105957,-1.7837285995483398
1680886667482714400,10.05271435546875,2.7244184017181396,2.0111756324768066,-1.6231706142425537
1680886667492754400,10.06275439453125,2.9136815071105957,2.253706455230713,-1.5146045684814453
1680886667502794200,10.072794189453125,2.8641395568847656,2.395235538482666,-1.4902013540267944
1680886667512834300,10.082834228515624,2.6050732135772705,2.4729528427124023,-1.536674976348877
1680886667522874000,10.0928740234375,2.458075761795044,2.546266555786133,-1.6496195793151855
1680886667532914200,10.1029140625,2.494687080383301,2.6465392112731934,-1.8403825759887695
1680886667542954000,10.1129541015625,2.6024911403656006,2.7736196517944336,-2.0351433753967285
1680886667552994000,10.122994140625,2.7179150581359863,2.928654193878174,-2.1837778091430664
1680886667563033900,10.133033935546875,2.771963119506836,3.102630138397217,-2.2817511558532715
1680886667573074000,10.143073974609376,2.7308766841888428,3.286121368408203,-2.413144588470459
1680886667583114000,10.153114013671875,2.6612372398376465,3.460669994354248,-2.6521878242492676
1680886667593153800,10.16315380859375,2.5963025093078613,3.6011581420898438,-2.943333625793457
1680886667603193900,10.17319384765625,2.5530269145965576,3.7159886360168457,-3.2235331535339355
1680886667613233700,10.183233642578125,2.543375015258789,3.8059892654418945,-3.4601216316223145
1680886667623273700,10.193273681640624,2.5455760955810547,3.7973780632019043,-3.5857460498809814
1680886667633313500,10.2033134765625,2.4205780029296875,3.6293444633483887,-3.567244529724121
1680886667643353600,10.213353515625,1.924211859703064,3.2790536880493164,-3.5306389331817627
1680886667653393400,10.223393310546875,1.1022305488586426,2.750213623046875,-3.4296703338623047
1680886667663433500,10.23343359375,0.058659911155700684,1.9808435440063477,-3.077816963195801
1680886667673473300,10.243473388671875,-1.2531611919403076,0.8683872222900391,-2.247394323348999
1680886667683513300,10.253513427734376,-2.9563074111938477,-0.47999095916748047,-0.9863993525505066
1680886667693553200,10.26355322265625,-4.698650360107422,-1.9382810592651367,0.6573492288589478
1680886667703593200,10.27359326171875,-5.6513190269470215,-3.241607666015625,2.4215126037597656
1680886667713633000,10.283633056640625,-5.830565929412842,-4.136627197265625,3.982194423675537
1680886667723673000,10.293673095703125,-5.699149131774902,-4.558335304260254,4.869434356689453
1680886667733713200,10.303713134765625,-5.302970886230469,-4.560946464538574,4.835318088531494
1680886667743753000,10.3137529296875,-4.626049995422363,-4.239384651184082,4.037199020385742
1680886667753793000,10.32379296875,-3.6544008255004883,-3.6447324752807617,2.8498036861419678
1680886667763832800,10.333832763671875,-2.5643765926361084,-2.7798166275024414,1.6311562061309814
1680886667773873000,10.343872802734374,-1.4488741159439087,-1.8611431121826172,0.5974409580230713
1680886667783912700,10.35391259765625,-0.38832199573516846,-1.2539243698120117,-0.11600327491760254
1680886667793952800,10.363952880859374,0.4185454845428467,-0.9661121368408203,-0.5636130571365356
1680886667803992600,10.37399267578125,0.9248116612434387,-1.0503034591674805,-0.8463206887245178
1680886667814032600,10.38403271484375,1.226169466972351,-1.5075750350952148,-1.077528715133667
1680886667824072700,10.39407275390625,1.4336618185043335,-2.2345590591430664,-1.3054167032241821
1680886667834112500,10.404112548828126,1.5593637228012085,-3.0192337036132812,-1.516400933265686
1680886667844152600,10.414152587890625,1.5838050842285156,-3.477031707763672,-1.5550792217254639
1680886667854192400,10.4241923828125,1.1788772344589233,-3.393124580383301,-1.4431960582733154
1680886667864232200,10.434232177734375,0.3633537292480469,-2.7346582412719727,-1.162049412727356
1680886667874272300,10.444272216796875,-0.07924318313598633,-1.6900577545166016,-0.9233695268630981
1680886667884312300,10.454312255859374,0.00165557861328125,-0.528080940246582,-0.8248783349990845
1680886667894352100,10.46435205078125,0.3301584720611572,0.6363859176635742,-0.846794068813324
1680886667904392200,10.47439208984375,0.67709881067276,1.681380271911621,-0.9427962303161621
1680886667914432000,10.484431884765625,0.9963037967681885,2.4597949981689453,-1.105021595954895
1680886667924472000,10.49447216796875,1.28988516330719,2.8369035720825195,-1.37558913230896
1680886667934511900,10.504511962890625,1.5359998941421509,2.8032469749450684,-1.6212666034698486
1680886667944552000,10.514552001953126,1.731942892074585,2.44077205657959,-1.7882062196731567
1680886667954591700,10.524591796875,1.94717538356781,1.8606457710266113,-1.8507766723632812
1680886667964631800,10.5346318359375,2.2045068740844727,1.2078008651733398,-1.8842039108276367
1680886667974671600,10.544671630859375,2.4330363273620605,0.6053199768066406,-1.8649771213531494
1680886667984711700,10.554711669921875,2.5852270126342773,0.1947317123413086,-1.7637587785720825
1680886667994751700,10.564751708984375,2.612372875213623,-0.03880882263183594,-1.5930432081222534
1680886668004791600,10.57479150390625,2.477236747741699,-0.1492929458618164,-1.3811452388763428
1680886668014831600,10.58483154296875,2.2081198692321777,-0.15029048919677734,-1.1399712562561035
1680886668024871400,10.594871337890625,1.819337010383606,-0.0695047378540039,-0.894051730632782
1680886668034911500,10.604911376953124,1.2562214136123657,0.07025718688964844,-0.6319778561592102
1680886668044951300,10.614951416015625,0.3259221315383911,0.2389364242553711,-0.31524890661239624
1680886668054991400,10.624991455078124,-0.8574057817459106,0.35782337188720703,0.043834805488586426
1680886668065031200,10.63503125,-1.9114786386489868,0.4393014907836914,0.3797397017478943
1680886668075071200,10.6450712890625,-2.5045604705810547,0.47475242614746094,0.6274770498275757
1680886668085111300,10.655111328125,-2.5760433673858643,0.5061063766479492,0.7593060731887817
1680886668095151000,10.665151123046876,-2.2564046382904053,0.5632867813110352,0.799072265625
1680886668105191200,10.675191162109375,-1.7200911045074463,0.625335693359375,0.813069224357605
1680886668115231000,10.68523095703125,-1.107905387878418,0.6743183135986328,0.8216432332992554
1680886668125271000,10.69527099609375,-0.5195254683494568,0.7335977554321289,0.8363579511642456
1680886668135310800,10.705310791015625,-0.029783666133880615,0.8147382736206055,0.8446564078330994
1680886668145351000,10.715350830078124,0.3246883153915405,0.9054727554321289,0.8532140254974365
1680886668155390700,10.725390625,0.5552507042884827,0.9672918319702148,0.854189395904541
1680886668165430800,10.7354306640625,0.6786348819732666,0.9881601333618164,0.8584837317466736
1680886668175470600,10.745470703125,0.7014493346214294,0.9611835479736328,0.8986743688583374
1680886668185510700,10.7555107421875,0.6378876566886902,0.8774576187133789,0.9878209829330444
1680886668195550700,10.76555078125,0.5070164203643799,0.7041311264038086,1.089760184288025
1680886668205590500,10.775590576171876,0.3194146156311035,0.4437370300292969,1.1820625066757202
1680886668215630600,10.785630615234375,0.05592226982116699,0.11453723907470703,1.2648682594299316
1680886668225670400,10.79567041015625,-0.35081470012664795,-0.23734378814697266,1.3189142942428589
1680886668235710500,10.80571044921875,-0.9542073607444763,-0.4991922378540039,1.345902442932129
1680886668245750300,10.815750244140625,-1.7205151319503784,-0.6339311599731445,1.3602569103240967
1680886668255790300,10.825790283203125,-2.521822452545166,-0.7319154739379883,1.3729679584503174
1680886668265830100,10.835830078125,-3.1411094665527344,-0.853175163269043,1.4134917259216309
1680886668275870200,10.8458701171875,-3.3896889686584473,-0.9657306671142578,1.5163027048110962
1680886668285910300,10.85591015625,-3.2488038539886475,-1.0605363845825195,1.7188341617584229
1680886668295950000,10.8659501953125,-2.8388803005218506,-1.1106624603271484,1.9993640184402466
1680886668305990100,10.875990234375,-2.307645797729492,-1.1000595092773438,2.315661668777466
1680886668316030000,10.886030029296874,-1.7961945533752441,-1.0729942321777344,2.639042854309082
1680886668326070000,10.896070068359375,-1.3953275680541992,-1.081756591796875,2.927156448364258
1680886668336109800,10.90610986328125,-1.1299293041229248,-1.173365592956543,3.1318228244781494
1680886668346150000,10.91614990234375,-0.9768048524856567,-1.3687267303466797,3.2313194274902344
1680886668356189700,10.926189697265626,-0.9174603819847107,-1.6960887908935547,3.255427837371826
1680886668366229800,10.936229736328125,-0.9815254211425781,-2.1098194122314453,3.226076602935791
1680886668376269800,10.946269775390626,-1.2304025888442993,-2.5047731399536133,3.1685445308685303
1680886668386309600,10.9563095703125,-1.7057993412017822,-2.7460594177246094,3.1303343772888184
1680886668396349700,10.966349609375,-2.285276412963867,-2.7640037536621094,3.14762020111084
1680886668406389500,10.976389404296874,-2.80511474609375,-2.697972297668457,3.173046588897705
1680886668416429600,10.9864296875,-3.2119600772857666,-2.619527816772461,3.141725540161133
1680886668426469400,10.996469482421874,-3.415705680847168,-2.4846134185791016,2.972912549972534
1680886668436509400,11.006509521484375,-3.361626148223877,-2.271747589111328,2.689114809036255
1680886668446549200,11.01654931640625,-2.99056077003479,-2.0360183715820312,2.317462921142578
1680886668456589300,11.02658935546875,-2.4277796745300293,-1.9030466079711914,1.7738572359085083
1680886668466629000,11.036629150390626,-1.7801642417907715,-1.9650087356567383,0.9977134466171265
1680886668476669200,11.046669189453125,-1.0072828531265259,-2.17110538482666,0.06511063128709793
1680886668486709200,11.056709228515626,-0.10235536098480225,-2.3908472061157227,-0.8552860021591187
1680886668496749000,11.0667490234375,0.8240998983383179,-2.523204803466797,-1.6540703773498535
1680886668506789000,11.0767890625,1.6442543268203735,-2.640286445617676,-2.346803665161133
1680886668516829000,11.086828857421875,2.3395683765411377,-2.7810802459716797,-2.971832513809204
1680886668526869000,11.096868896484375,2.9367034435272217,-2.9079275131225586,-3.5632731914520264
1680886668536909000,11.106908935546874,3.5057129859924316,-2.9255971908569336,-4.035089015960693
1680886668546948900,11.116948974609375,4.0229997634887695,-2.706130027770996,-4.207648277282715
1680886668556989000,11.126989013671874,4.318479061126709,-2.247593879699707,-3.961322546005249
1680886668567028700,11.13702880859375,4.221203804016113,-1.639317512512207,-3.2789108753204346
1680886668577068800,11.14706884765625,3.792527437210083,-0.9491901397705078,-2.3824899196624756
1680886668587108600,11.157108642578125,3.0644302368164062,-0.3140401840209961,-1.6800458431243896
1680886668597148700,11.167148681640626,2.3536529541015625,0.20171070098876953,-1.177250623703003
1680886668607188500,11.1771884765625,1.9951865673065186,0.5994758605957031,-0.8074674010276794
1680886668617228500,11.187228515625,1.9810279607772827,0.9458856582641602,-0.515324592590332
1680886668627268600,11.1972685546875,2.138395071029663,1.2846755981445312,-0.3781488537788391
1680886668637308400,11.207308349609375,2.2732980251312256,1.5846786499023438,-0.4518827795982361
1680886668647348500,11.217348388671875,2.2392637729644775,1.836629867553711,-0.70626300573349
1680886668657388300,11.22738818359375,2.090254068374634,2.0167112350463867,-1.0427677631378174
1680886668667428400,11.237428466796874,2.0064425468444824,2.1170105934143066,-1.3625268936157227
1680886668677468200,11.24746826171875,2.048158645629883,2.180924415588379,-1.6515096426010132
1680886668687508200,11.25750830078125,2.22929310798645,2.2381372451782227,-1.9128952026367188
1680886668697548000,11.267548095703125,2.4910688400268555,2.300060749053955,-2.1422951221466064
1680886668707588000,11.277588134765624,2.7460010051727295,2.3760690689086914,-2.3517255783081055
1680886668717628200,11.287628173828125,2.8956191539764404,2.4773364067077637,-2.5661938190460205
1680886668727668000,11.29766796875,2.9136171340942383,2.61647367477417,-2.812934637069702
1680886668737708000,11.3077080078125,2.5789434909820557,3.5029420852661133,-4.268349647521973
1680886668747747800,11.317747802734376,2.2565784454345703,3.6713271141052246,-4.61142635345459
1680886668757788000,11.327787841796875,2.1180245876312256,3.701707363128662,-4.8476996421813965
1680886668767827700,11.33782763671875,2.166395664215088,3.7641096115112305,-4.704029083251953
1680886668777867800,11.34786767578125,2.214109182357788,3.7434258460998535,-4.332474231719971
1680886668787907800,11.357907958984375,1.8987877368927002,3.4402084350585938,-3.818150043487549
1680886668797947600,11.36794775390625,1.0052990913391113,2.9100890159606934,-3.459097385406494
1680886668807987700,11.37798779296875,-0.5322242975234985,2.0483999252319336,-3.230325698852539
1680886668818027500,11.388027587890624,-1.9542639255523682,0.7897329330444336,-2.4509012699127197
1680886668828067600,11.398067626953125,-3.25921630859375,-1.1239824295043945,-0.7252581119537354
1680886668838107600,11.408107666015624,-5.19242000579834,-3.3468446731567383,1.5849976539611816
1680886668848147500,11.4181474609375,-7.892753601074219,-5.4652204513549805,3.978813409805298
1680886668858187500,11.4281875,-9.68116569519043,-7.105192184448242,6.891478538513184
1680886668868227300,11.438227294921875,-9.043620109558105,-7.6083784103393555,9.308178901672363
1680886668878267400,11.448267333984376,-7.1551833152771,-7.04670524597168,10.143932342529297
1680886668888307200,11.45830712890625,-5.844341278076172,-6.176551818847656,9.159048080444336
1680886668898347300,11.46834716796875,-4.4815497398376465,-5.127982139587402,6.615886211395264
1680886668908387000,11.478386962890625,-2.3814687728881836,-3.916792869567871,3.493948459625244
1680886668918427100,11.48842724609375,0.15968596935272217,-2.1184616088867188,0.556728720664978
1680886668928467200,11.49846728515625,1.977996826171875,0.04121589660644531,-1.352015733718872
1680886668938507000,11.508507080078125,3.080148220062256,1.1465950012207031,-2.1673717498779297
1680886668948547000,11.518547119140624,4.097058296203613,0.9427690505981445,-2.1017684936523438
1680886668958587000,11.5285869140625,3.625642776489258,0.1324920654296875,-2.2228331565856934
1680886668968627000,11.538626953125,2.9079489707946777,-1.156174659729004,-2.2995517253875732
1680886668978666800,11.548666748046875,2.535867214202881,-2.633185386657715,-2.510721445083618
1680886668988706800,11.558706787109376,2.5055418014526367,-4.158774375915527,-2.821336507797241
1680886668998746600,11.56874658203125,2.485618829727173,-5.068812370300293,-2.973262310028076
1680886669008786700,11.57878662109375,1.9161179065704346,-4.427424430847168,-2.503751039505005
1680886669018826800,11.58882666015625,-0.705923318862915,-2.2802515029907227,-2.007397174835205
1680886669028866600,11.598866455078126,-1.7023588418960571,0.4575967788696289,-1.3912367820739746
1680886669038906600,11.60890673828125,-0.4311870336532593,2.610309600830078,-1.1062695980072021
1680886669048946400,11.618946533203125,0.9675780534744263,3.7760190963745117,-1.0868268013000488
1680886669058986500,11.628986572265624,1.6576156616210938,4.693498134613037,-1.083400011062622
1680886669069026300,11.6390263671875,1.8866689205169678,4.977176666259766,-1.3128879070281982
1680886669079066400,11.64906640625,2.0848426818847656,4.5334577560424805,-1.6445338726043701
1680886669089106400,11.6591064453125,2.3555045127868652,3.616260528564453,-1.7167874574661255
1680886669099146200,11.669146240234374,2.647522449493408,2.4081411361694336,-1.4009889364242554
1680886669109186300,11.679186279296875,2.9957327842712402,1.278350830078125,-1.1646543741226196
1680886669119226000,11.68922607421875,3.2838549613952637,0.2588663101196289,-1.0475530624389648
1680886669129266200,11.69926611328125,3.4173665046691895,-0.5348854064941406,-0.934326708316803
1680886669139306200,11.70930615234375,3.605621576309204,-1.0715837478637695,-0.5527289509773254
1680886669149346000,11.719345947265625,3.3959641456604004,-1.0558490753173828,-0.5187675356864929
1680886669159386000,11.72938623046875,2.8384766578674316,-0.674098014831543,-0.5612330436706543
1680886669169426000,11.739426025390625,2.25662899017334,-0.3772411346435547,-0.4634401798248291
1680886669179466000,11.749466064453125,1.7840968370437622,-0.16083431243896484,-0.21719211339950562
1680886669189505800,11.759505859375,1.267061471939087,0.0059566497802734375,0.0810847282409668
1680886669199545900,11.7695458984375,0.508182942867279,0.24666500091552734,0.2110876441001892
1680886669209586000,11.7795859375,-1.757794737815857,0.7694950103759766,0.4557420015335083
1680886669219625700,11.789625732421875,-4.663372993469238,1.0592069625854492,0.8287551999092102
1680886669229665800,11.799665771484374,-6.2096333503723145,1.2166385650634766,0.9998283386230469
1680886669239705600,11.80970556640625,-5.461883544921875,1.217259407043457,0.9401735067367554
1680886669249745700,11.81974560546875,-3.492213726043701,0.9871549606323242,0.7504693269729614
1680886669259785500,11.829785400390625,-1.3260712623596191,0.7842330932617188,0.5275774598121643
1680886669269825500,11.839825439453126,0.4198918640613556,0.6759796142578125,0.6519986391067505
1680886669279865600,11.849865478515625,1.51332426071167,0.7015705108642578,0.7987468242645264
1680886669289905400,11.859905517578126,2.192110061645508,0.8074436187744141,0.8662909269332886
1680886669299945500,11.869945556640625,2.4147462844848633,0.947484016418457,0.9223074913024902
1680886669309985300,11.8799853515625,2.2078781127929688,0.9969167709350586,0.888709545135498
1680886669320025300,11.890025390625,1.800886631011963,1.0486602783203125,0.8735496997833252
1680886669330065400,11.9000654296875,1.4019619226455688,1.0235471725463867,0.7813435196876526
1680886669340105200,11.910105224609374,1.0211176872253418,0.7950935363769531,0.7709118127822876
1680886669350145300,11.920145263671875,0.7004532217979431,0.3570871353149414,0.9645995497703552
1680886669360185000,11.93018505859375,0.310610294342041,-0.2011127471923828,1.095879316329956
1680886669370225200,11.94022509765625,-0.31579023599624634,-0.671727180480957,1.0343959331512451
1680886669380265200,11.95026513671875,-1.380049228668213,-1.043619155883789,0.9130734205245972
1680886669390305000,11.960304931640625,-2.793093681335449,-1.261439323425293,0.6722730994224548
1680886669400345000,11.970344970703126,-4.21951961517334,-1.260854721069336,0.4992983937263489
1680886669410385000,11.980385009765625,-5.133439064025879,-1.2488794326782227,0.48149383068084717
1680886669420425000,11.990425048828126,-5.162791728973389,-1.418391227722168,0.7663159370422363
1680886669430465000,12.000465087890625,-4.334099769592285,-1.6204357147216797,1.2850314378738403
1680886669440504800,12.0105048828125,-3.0224876403808594,-1.7493181228637695,2.0299127101898193
1680886669450545000,12.020544921875,-1.6801527738571167,-1.6518125534057617,2.8859963417053223
1680886669460584700,12.030584716796875,-0.575717568397522,-1.525106430053711,3.563107967376709
1680886669470624800,12.040624755859374,0.04767024517059326,-1.553567886352539,4.206935882568359
1680886669480664800,12.050664794921875,0.16729724407196045,-1.8068923950195312,4.657680511474609
1680886669490704600,12.06070458984375,-0.1925719976425171,-2.2143468856811523,4.896363258361816
1680886669500744700,12.07074462890625,-0.9775079488754272,-2.812588691711426,4.863622188568115
1680886669510784500,12.080784423828124,-2.0020647048950195,-3.4935388565063477,4.651821136474609
1680886669520824600,12.090824462890625,-3.3412179946899414,-4.012068748474121,4.373573303222656
1680886669530864400,12.100864501953126,-4.641060829162598,-3.998631477355957,4.193592548370361
1680886669540904400,12.110904541015625,-5.563354015350342,-3.461920738220215,4.342517375946045
1680886669550944500,12.120944580078126,-7.188863754272461,-2.833097457885742,4.237620830535889
1680886669560984300,12.130984375,-7.265379905700684,-2.458195686340332,4.05916166305542
1680886669571024400,12.1410244140625,-4.962396144866943,-2.0865135192871094,3.7381911277770996
1680886669581064200,12.151064208984375,-1.319262981414795,-1.3379192352294922,2.760838508605957
1680886669591104300,12.161104248046875,1.4288907051086426,-1.148244857788086,1.4435795545578003
1680886669601144000,12.17114404296875,2.8368730545043945,-1.7377166748046875,-0.10525984317064285
1680886669611184000,12.18118408203125,3.5954983234405518,-2.2289857864379883,-1.6526703834533691
1680886669621224200,12.19122412109375,4.115768909454346,-2.398874282836914,-2.8426764011383057
1680886669631264000,12.201263916015625,4.306948661804199,-2.710984230041504,-3.2404768466949463
1680886669641304000,12.211303955078124,4.317915916442871,-3.237240791320801,-3.5212161540985107
1680886669651344000,12.22134375,4.280016899108887,-3.7345657348632812,-4.1176042556762695
1680886669661384000,12.231384033203126,4.346076965332031,-3.936629295349121,-5.115934371948242
1680886669671424000,12.241424072265625,4.431139945983887,-3.8002281188964844,-5.898038864135742
1680886669681463800,12.2514638671875,4.484827995300293,-3.0779008865356445,-5.901974678039551
1680886669691503900,12.26150390625,4.280879974365234,-1.7578821182250977,-4.906035900115967
1680886669701544000,12.2715439453125,3.9062652587890625,-0.04775238037109375,-3.190305233001709
1680886669711583700,12.281583740234375,3.266619920730591,1.8205680847167969,-1.6488746404647827
1680886669721623800,12.291623779296875,2.6186540126800537,3.303424835205078,-0.8617344498634338
1680886669731663600,12.30166357421875,2.180021286010742,4.108730316162109,-0.4283265173435211
1680886669741703700,12.31170361328125,1.5909351110458374,4.099161624908447,-0.16362765431404114
1680886669751743700,12.32174365234375,1.4513808488845825,3.6989197731018066,-0.22373393177986145
1680886669761783600,12.331783447265625,1.691941261291504,3.295712471008301,-0.47145652770996094
1680886669771823600,12.34182373046875,1.5312680006027222,2.9191346168518066,-0.4244186282157898
1680886669781863400,12.351863525390625,1.272447943687439,2.5118870735168457,-0.36074012517929077
1680886669791903500,12.361903564453126,1.0127806663513184,2.1962952613830566,-0.4021218419075012
1680886669801943300,12.371943359375,1.019356369972229,1.8493223190307617,-0.7432810664176941
1680886669811983400,12.3819833984375,1.7628002166748047,1.6872138977050781,-1.2426046133041382
1680886669822023400,12.3920234375,2.6353485584259033,1.738825798034668,-1.8412346839904785
1680886669832063200,12.402063232421876,3.208200693130493,1.8752355575561523,-2.4577226638793945
1680886669842103300,12.412103271484375,3.1533665657043457,2.0823421478271484,-2.740544319152832
1680886669852143400,12.422143310546875,2.350034475326538,2.400036334991455,-2.7597413063049316
1680886669862183200,12.43218310546875,1.842724323272705,2.6942214965820312,-3.0402586460113525
1680886669872223200,12.44222314453125,1.8289287090301514,2.962643623352051,-3.4031667709350586
1680886669882263000,12.452262939453124,1.9812132120132446,3.163867950439453,-3.7992374897003174
1680886669892303000,12.46230322265625,2.134014368057251,3.326345443725586,-4.308072090148926
1680886669902343200,12.47234326171875,2.1810524463653564,3.392396926879883,-4.5951032638549805
1680886669912383000,12.482383056640625,2.223609685897827,3.454498291015625,-4.554948806762695
1680886669922423000,12.492423095703124,2.2065622806549072,3.420248031616211,-4.206784725189209
1680886669932462800,12.502462890625,2.0441319942474365,3.1488986015319824,-3.7847142219543457
1680886669942503000,12.5125029296875,1.2874093055725098,2.5918002128601074,-3.6724867820739746
1680886669952542700,12.522542724609375,-0.2054959535598755,1.7942872047424316,-3.7135488986968994
1680886669962582800,12.532582763671876,-1.8196040391921997,0.7510089874267578,-3.4293737411499023
1680886669972622800,12.542622802734375,-2.7244808673858643,-0.5512199401855469,-2.438286066055298
1680886669982662700,12.55266259765625,-3.975416421890259,-2.249241828918457,-0.7810946702957153
1680886669992702700,12.56270263671875,-6.629137992858887,-4.067624092102051,1.4842309951782227
1680886670002742800,12.57274267578125,-10.03007698059082,-5.707559585571289,4.165666580200195
1680886670012782600,12.582782470703124,-10.918917655944824,-6.647701263427734,7.336558818817139
1680886670022822700,12.59282275390625,-7.61848258972168,-6.318307876586914,9.447433471679688
1680886670032862500,12.602862548828124,-3.2669267654418945,-5.296906471252441,10.32275104522705
1680886670042902500,12.612902587890625,-0.9501848220825195,-4.203051567077637,10.11186695098877
1680886670052942600,12.622942626953124,-0.468189001083374,-3.302252769470215,8.887770652770996
1680886670062982400,12.632982421875,-0.3534870147705078,-2.106353759765625,6.200430870056152
1680886670073022500,12.6430224609375,0.9953163862228394,-0.7774496078491211,2.0336899757385254
1680886670083062300,12.653062255859375,2.7060351371765137,0.44876956939697266,-0.960525631904602
1680886670093102300,12.663102294921876,3.7587313652038574,1.8245549201965332,-2.083878517150879
1680886670103142400,12.673142333984375,3.8700575828552246,2.4196038246154785,-2.4565212726593018
1680886670113182200,12.68318212890625,3.377574920654297,0.9034242630004883,-1.5504100322723389
1680886670123222300,12.69322216796875,2.6561031341552734,-0.6794033050537109,-1.0498268604278564
